time,ax,ay,az,atotal
2022-08-11 17:53:54.2820,0.16,0.21,-0.34,0.43
2022-08-11 17:53:54.2920,0.26,0.27,-0.35,0.51
2022-08-11 17:53:54.3030,0.48,0.1,-0.18,0.52
2022-08-11 17:53:54.3170,0.6,0.06,-0.19,0.63
2022-08-11 17:53:54.3220,0.56,0.06,-0.16,0.58
2022-08-11 17:53:54.3330,0.55,-0.01,0.06,0.55
2022-08-11 17:53:54.3430,0.58,-0.08,0.39,0.7
2022-08-11 17:53:54.3520,0.5,-0.13,0.63,0.81
2022-08-11 17:53:54.3630,0.4,-0.16,0.59,0.73
2022-08-11 17:53:54.3720,0.33,-0.11,0.25,0.42
2022-08-11 17:53:54.3820,0.27,-0.02,-0.04,0.27
2022-08-11 17:53:54.3920,0.11,0.09,-0.32,0.35
2022-08-11 17:53:54.4030,0.05,0.11,-0.44,0.45
2022-08-11 17:53:54.4210,0.08,0.18,-0.24,0.31
2022-08-11 17:53:54.4260,-0.69,0.71,0.0,0.99
2022-08-11 17:53:54.4310,-0.91,0.73,0.02,1.16
2022-08-11 17:53:54.4420,-0.11,0.03,-0.07,0.13
2022-08-11 17:53:54.4520,0.16,-0.33,-0.25,0.44
2022-08-11 17:53:54.4610,0.22,-0.51,-0.41,0.69
2022-08-11 17:53:54.4720,0.28,-0.52,-0.37,0.69
2022-08-11 17:53:54.4830,0.09,-0.27,-0.64,0.7
2022-08-11 17:53:54.4910,0.0,-0.08,-0.83,0.83
2022-08-11 17:53:54.5010,0.54,-0.65,-0.42,0.94
2022-08-11 17:53:54.5240,0.51,-1.06,0.02,1.17
2022-08-11 17:53:54.5270,0.18,-0.68,-0.19,0.72
2022-08-11 17:53:54.5300,0.31,-0.42,-0.18,0.55
2022-08-11 17:53:54.5410,0.27,-0.38,-0.3,0.55
2022-08-11 17:53:54.5520,0.15,-0.42,-0.39,0.59
2022-08-11 17:53:54.5610,0.01,-0.4,-0.44,0.59
2022-08-11 17:53:54.5720,-0.08,-0.36,-0.49,0.61
2022-08-11 17:53:54.5800,0.01,-0.41,-0.57,0.7
2022-08-11 17:53:54.5910,0.13,-0.52,-0.77,0.93
2022-08-11 17:53:54.6000,0.25,-0.55,-1.06,1.22
2022-08-11 17:53:54.6230,0.38,-0.66,-1.19,1.41
2022-08-11 17:53:54.6260,0.19,-0.81,-0.73,1.1
2022-08-11 17:53:54.6310,-0.62,-0.33,0.37,0.79
2022-08-11 17:53:54.6400,0.24,0.45,-0.49,0.7
2022-08-11 17:53:54.6500,-0.43,0.44,-0.44,0.75
2022-08-11 17:53:54.6610,-0.59,0.31,-0.7,0.96
2022-08-11 17:53:54.6700,-0.45,0.33,-0.93,1.08
2022-08-11 17:53:54.6810,-0.28,0.34,-0.74,0.86
2022-08-11 17:53:54.6900,-0.5,0.33,-0.2,0.63
2022-08-11 17:53:54.7000,-0.74,0.38,0.22,0.86
2022-08-11 17:53:54.7100,-0.6,0.45,0.38,0.84
2022-08-11 17:53:54.7250,-0.26,0.34,0.15,0.45
2022-08-11 17:53:54.7300,0.0,0.14,-0.22,0.26
2022-08-11 17:53:54.7400,0.08,-0.05,-0.37,0.38
2022-08-11 17:53:54.7510,0.13,-0.08,-0.53,0.55
2022-08-11 17:53:54.7590,0.37,-0.19,-0.65,0.77
2022-08-11 17:53:54.7710,0.47,-0.54,-0.5,0.87
2022-08-11 17:53:54.7790,0.55,-0.77,-0.2,0.96
2022-08-11 17:53:54.7910,0.74,-0.85,-0.03,1.12
2022-08-11 17:53:54.7990,1.07,-0.93,-0.31,1.45
2022-08-11 17:53:54.8100,1.1,-0.89,-0.37,1.46
2022-08-11 17:53:54.8260,0.7,-0.44,0.12,0.83
2022-08-11 17:53:54.8280,0.25,-0.01,0.22,0.33
2022-08-11 17:53:54.8390,-0.12,0.3,-0.04,0.32
2022-08-11 17:53:54.8490,-0.34,0.56,-0.14,0.66
2022-08-11 17:53:54.8580,-0.35,0.61,-0.14,0.71
2022-08-11 17:53:54.8700,0.19,0.31,-0.47,0.59
2022-08-11 17:53:54.8790,0.41,0.06,-0.62,0.74
2022-08-11 17:53:54.8880,0.27,-0.2,-0.22,0.4
2022-08-11 17:53:54.8990,0.25,-0.46,0.26,0.58
2022-08-11 17:53:54.9090,0.56,-0.49,0.18,0.76
2022-08-11 17:53:54.9220,0.84,-0.38,-0.13,0.93
2022-08-11 17:53:54.9280,0.94,-0.35,-0.59,1.16
2022-08-11 17:53:54.9380,0.59,-0.24,-0.63,0.89
2022-08-11 17:53:54.9480,0.24,-0.01,-0.51,0.56
2022-08-11 17:53:54.9590,0.21,0.12,-0.37,0.44
2022-08-11 17:53:54.9680,0.2,0.17,-0.39,0.47
2022-08-11 17:53:54.9780,0.03,0.28,-0.23,0.36
2022-08-11 17:53:54.9870,-0.02,0.28,-0.15,0.31
2022-08-11 17:53:54.9970,0.14,0.24,-0.09,0.29
2022-08-11 17:53:55.0080,0.36,0.18,-0.14,0.42
2022-08-11 17:53:55.0220,0.45,0.06,-0.47,0.65
2022-08-11 17:53:55.0270,0.34,0.13,-0.37,0.51
2022-08-11 17:53:55.0380,0.01,-0.07,-0.52,0.52
2022-08-11 17:53:55.0490,-0.35,-0.55,-0.76,1.0
2022-08-11 17:53:55.0580,-0.69,-0.31,-1.27,1.47
2022-08-11 17:53:55.0680,-0.3,0.45,-2.45,2.5
2022-08-11 17:53:55.0770,1.22,0.65,-2.9,3.21
2022-08-11 17:53:55.0870,1.74,0.51,-2.92,3.43
2022-08-11 17:53:55.0970,1.11,0.73,-2.62,2.93
2022-08-11 17:53:55.1070,0.65,0.79,-1.93,2.18
2022-08-11 17:53:55.1270,0.31,0.73,-1.52,1.71
2022-08-11 17:53:55.1300,0.14,0.51,-1.27,1.37
2022-08-11 17:53:55.1370,-0.01,0.29,-1.03,1.07
2022-08-11 17:53:55.1470,0.17,0.09,-0.92,0.93
2022-08-11 17:53:55.1560,0.41,0.13,-0.86,0.96
2022-08-11 17:53:55.1670,0.45,0.14,-0.32,0.56
2022-08-11 17:53:55.1760,0.29,0.09,0.13,0.33
2022-08-11 17:53:55.1860,0.25,-0.32,0.17,0.44
2022-08-11 17:53:55.1960,0.21,-0.74,0.06,0.77
2022-08-11 17:53:55.2070,0.05,-0.89,0.14,0.9
2022-08-11 17:53:55.2250,-0.04,-0.9,0.13,0.91
2022-08-11 17:53:55.2290,-0.1,-0.73,0.02,0.73
2022-08-11 17:53:55.2360,-0.21,-0.57,-0.13,0.62
2022-08-11 17:53:55.2460,-0.22,-0.84,-0.09,0.87
2022-08-11 17:53:55.2570,-0.26,-1.16,0.02,1.18
2022-08-11 17:53:55.2650,-0.38,-1.36,0.35,1.45
2022-08-11 17:53:55.2760,-0.49,-1.59,0.61,1.77
2022-08-11 17:53:55.2850,-0.38,-1.74,0.54,1.86
2022-08-11 17:53:55.2950,-0.19,-1.66,0.7,1.81
2022-08-11 17:53:55.3070,-0.13,-1.43,0.86,1.67
2022-08-11 17:53:55.3280,0.05,-1.45,0.77,1.64
2022-08-11 17:53:55.3300,0.17,-1.42,0.86,1.66
2022-08-11 17:53:55.3350,0.1,-1.39,1.06,1.75
2022-08-11 17:53:55.3450,0.09,-1.7,1.09,2.02
2022-08-11 17:53:55.3550,0.01,-1.88,1.16,2.2
2022-08-11 17:53:55.3660,0.04,-1.83,1.19,2.18
2022-08-11 17:53:55.3750,0.01,-1.75,1.09,2.06
2022-08-11 17:53:55.3850,0.27,-1.48,1.27,1.96
2022-08-11 17:53:55.3960,0.42,-1.16,1.34,1.82
2022-08-11 17:53:55.4040,0.55,-1.03,1.44,1.85
2022-08-11 17:53:55.4230,0.57,-0.97,1.32,1.73
2022-08-11 17:53:55.4270,0.6,-0.9,1.23,1.63
2022-08-11 17:53:55.4340,0.4,-0.69,1.27,1.49
2022-08-11 17:53:55.4450,0.25,-0.53,1.37,1.49
2022-08-11 17:53:55.4560,0.31,-0.42,1.49,1.57
2022-08-11 17:53:55.4640,0.4,-0.29,1.45,1.53
2022-08-11 17:53:55.4750,0.51,0.02,1.52,1.6
2022-08-11 17:53:55.4840,0.64,0.24,1.5,1.64
2022-08-11 17:53:55.4940,0.85,0.36,1.44,1.71
2022-08-11 17:53:55.5040,0.88,0.54,1.41,1.74
2022-08-11 17:53:55.5140,0.81,0.59,1.48,1.78
2022-08-11 17:53:55.5290,0.56,0.29,1.75,1.86
2022-08-11 17:53:55.5330,0.24,0.01,2.0,2.01
2022-08-11 17:53:55.5430,0.12,-0.02,2.07,2.07
2022-08-11 17:53:55.5540,0.25,0.13,2.13,2.14
2022-08-11 17:53:55.5630,0.49,0.36,2.13,2.21
2022-08-11 17:53:55.5750,0.87,0.85,2.0,2.34
2022-08-11 17:53:55.5830,1.16,1.25,1.89,2.54
2022-08-11 17:53:55.5940,1.41,1.28,1.7,2.55
2022-08-11 17:53:55.6030,1.38,0.98,1.51,2.26
2022-08-11 17:53:55.6130,1.11,0.63,1.52,1.98
2022-08-11 17:53:55.6280,0.72,0.43,1.79,1.97
2022-08-11 17:53:55.6320,0.31,0.64,2.05,2.16
2022-08-11 17:53:55.6440,0.16,0.85,2.2,2.36
2022-08-11 17:53:55.6530,0.18,0.99,2.05,2.28
2022-08-11 17:53:55.6630,0.31,1.02,1.82,2.1
2022-08-11 17:53:55.6740,0.5,0.96,1.54,1.88
2022-08-11 17:53:55.6820,0.54,0.66,1.16,1.43
2022-08-11 17:53:55.6920,0.43,0.25,0.85,0.98
2022-08-11 17:53:55.7020,0.28,-0.09,0.66,0.72
2022-08-11 17:53:55.7120,0.16,-0.28,0.58,0.66
2022-08-11 17:53:55.7260,0.14,-0.49,0.45,0.67
2022-08-11 17:53:55.7330,-0.01,-0.79,0.63,1.01
2022-08-11 17:53:55.7430,-0.15,-1.05,0.65,1.24
2022-08-11 17:53:55.7530,0.27,-0.91,0.39,1.02
2022-08-11 17:53:55.7620,0.91,-0.06,0.18,0.92
2022-08-11 17:53:55.7720,1.14,0.51,-0.16,1.25
2022-08-11 17:53:55.7820,1.11,0.94,-0.37,1.5
2022-08-11 17:53:55.7920,0.81,0.98,-0.52,1.37
2022-08-11 17:53:55.8030,0.56,0.58,-0.5,0.94
2022-08-11 17:53:55.8120,0.28,0.37,-0.24,0.52
2022-08-11 17:53:55.8280,0.09,0.36,0.21,0.42
2022-08-11 17:53:55.8320,0.17,0.77,0.39,0.87
2022-08-11 17:53:55.8420,0.57,1.23,0.42,1.41
2022-08-11 17:53:55.8510,0.96,1.84,0.38,2.1
2022-08-11 17:53:55.8630,1.22,2.15,0.45,2.51
2022-08-11 17:53:55.8710,1.15,1.83,0.34,2.18
2022-08-11 17:53:55.8830,0.92,1.09,0.31,1.45
2022-08-11 17:53:55.8910,0.6,0.07,0.52,0.79
2022-08-11 17:53:55.9010,0.61,-0.29,0.94,1.15
2022-08-11 17:53:55.9110,0.9,-0.15,1.07,1.4
2022-08-11 17:53:55.9300,1.31,0.21,0.9,1.6
2022-08-11 17:53:55.9330,1.25,0.54,0.88,1.62
2022-08-11 17:53:55.9410,1.19,0.62,0.6,1.46
2022-08-11 17:53:55.9520,1.32,1.15,0.12,1.75
2022-08-11 17:53:55.9620,1.5,2.12,-0.3,2.61
2022-08-11 17:53:55.9700,1.52,2.87,-0.71,3.32
2022-08-11 17:53:55.9820,1.14,3.16,-0.9,3.47
2022-08-11 17:53:55.9900,0.42,3.16,-1.06,3.35
2022-08-11 17:53:56.0000,-0.14,2.81,-1.44,3.16
2022-08-11 17:53:56.0130,-0.54,2.46,-1.76,3.07
2022-08-11 17:53:56.0300,-0.72,2.08,-2.08,3.02
2022-08-11 17:53:56.0330,-0.79,1.65,-2.23,2.88
2022-08-11 17:53:56.0400,-0.61,1.44,-2.23,2.72
2022-08-11 17:53:56.0510,-0.26,1.47,-2.12,2.59
2022-08-11 17:53:56.0610,0.14,1.42,-2.1,2.53
2022-08-11 17:53:56.0700,0.3,1.28,-1.99,2.38
2022-08-11 17:53:56.0810,0.23,1.02,-1.92,2.18
2022-08-11 17:53:56.0910,0.14,0.5,-1.93,1.99
2022-08-11 17:53:56.1000,0.17,0.05,-1.77,1.77
2022-08-11 17:53:56.1120,0.23,-0.17,-1.52,1.54
2022-08-11 17:53:56.1330,0.34,-0.28,-1.39,1.45
2022-08-11 17:53:56.1360,0.45,-0.36,-1.18,1.31
2022-08-11 17:53:56.1400,0.41,-0.5,-0.86,1.07
2022-08-11 17:53:56.1500,0.34,-0.64,-0.43,0.84
2022-08-11 17:53:56.1600,0.34,-0.47,0.04,0.58
2022-08-11 17:53:56.1690,0.38,-0.2,0.4,0.58
2022-08-11 17:53:56.1810,0.43,-0.03,0.57,0.71
2022-08-11 17:53:56.1910,0.54,0.19,0.62,0.84
2022-08-11 17:53:56.1990,0.58,0.41,0.66,0.96
2022-08-11 17:53:56.2090,0.46,0.42,0.71,0.94
2022-08-11 17:53:56.2330,0.26,0.02,0.77,0.81
2022-08-11 17:53:56.2350,-0.16,-0.55,1.06,1.2
2022-08-11 17:53:56.2390,-0.47,-1.02,1.37,1.77
2022-08-11 17:53:56.2490,-0.49,-1.19,1.5,1.97
2022-08-11 17:53:56.2590,-0.27,-1.01,1.49,1.82
2022-08-11 17:53:56.2700,0.0,-0.68,1.5,1.64
2022-08-11 17:53:56.2790,0.25,-0.4,1.39,1.46
2022-08-11 17:53:56.2900,0.49,-0.14,1.19,1.29
2022-08-11 17:53:56.2980,0.57,-0.04,0.99,1.14
2022-08-11 17:53:56.3080,0.43,-0.22,0.76,0.9
2022-08-11 17:53:56.3180,0.28,-0.53,0.55,0.81
2022-08-11 17:53:56.3340,0.29,-0.65,0.37,0.8
2022-08-11 17:53:56.3380,0.38,-0.32,0.29,0.57
2022-08-11 17:53:56.3480,0.39,0.05,0.23,0.45
2022-08-11 17:53:56.3590,0.47,0.29,0.1,0.56
2022-08-11 17:53:56.3680,0.54,0.34,-0.13,0.65
2022-08-11 17:53:56.3790,0.4,0.06,-0.27,0.48
2022-08-11 17:53:56.3890,0.2,-0.41,-0.33,0.56
2022-08-11 17:53:56.3970,0.15,-0.8,-0.34,0.88
2022-08-11 17:53:56.4090,0.27,-0.96,-0.26,1.03
2022-08-11 17:53:56.4170,0.46,-0.75,-0.02,0.88
2022-08-11 17:53:56.4320,0.54,-0.18,0.25,0.62
2022-08-11 17:53:56.4370,0.7,0.18,0.34,0.79
2022-08-11 17:53:56.4470,0.78,0.71,0.42,1.13
2022-08-11 17:53:56.4580,0.61,1.02,0.57,1.31
2022-08-11 17:53:56.4680,0.24,0.8,0.56,1.0
2022-08-11 17:53:56.4770,0.0,0.63,0.43,0.76
2022-08-11 17:53:56.4870,-0.07,0.64,0.26,0.69
2022-08-11 17:53:56.4970,0.05,0.66,0.3,0.72
2022-08-11 17:53:56.5070,0.13,0.83,0.52,0.98
2022-08-11 17:53:56.5180,0.06,0.8,0.78,1.11
2022-08-11 17:53:56.5330,0.0,0.76,0.95,1.21
2022-08-11 17:53:56.5360,0.15,0.76,1.0,1.26
2022-08-11 17:53:56.5470,0.07,0.72,1.11,1.32
2022-08-11 17:53:56.5580,0.14,0.48,1.05,1.16
2022-08-11 17:53:56.5680,0.28,0.31,1.14,1.21
2022-08-11 17:53:56.5760,0.36,0.13,1.19,1.25
2022-08-11 17:53:56.5880,0.5,0.04,0.97,1.09
2022-08-11 17:53:56.5960,0.59,0.26,0.77,1.0
2022-08-11 17:53:56.6060,0.68,0.53,0.59,1.04
2022-08-11 17:53:56.6160,0.58,0.44,0.33,0.79
2022-08-11 17:53:56.6320,0.23,-0.13,0.03,0.26
2022-08-11 17:53:56.6360,0.29,-0.83,-0.4,0.96
2022-08-11 17:53:56.6460,0.45,-1.45,-0.63,1.64
2022-08-11 17:53:56.6570,0.65,-1.83,-0.78,2.09
2022-08-11 17:53:56.6650,0.92,-1.84,-0.87,2.23
2022-08-11 17:53:56.6750,1.07,-1.71,-0.9,2.2
2022-08-11 17:53:56.6870,1.07,-1.33,-0.81,1.88
2022-08-11 17:53:56.6950,1.0,-0.64,-0.66,1.35
2022-08-11 17:53:56.7050,0.85,-0.33,-0.66,1.12
2022-08-11 17:53:56.7150,0.45,0.9,-0.58,1.16
2022-08-11 17:53:56.7350,-0.11,2.3,-0.76,2.42
2022-08-11 17:53:56.7380,-0.01,1.02,-1.31,1.66
2022-08-11 17:53:56.7460,0.87,-0.58,-0.96,1.41
2022-08-11 17:53:56.7560,1.5,-0.87,-0.27,1.75
2022-08-11 17:53:56.7660,1.23,-0.83,0.33,1.52
2022-08-11 17:53:56.7760,0.55,-0.87,0.75,1.27
2022-08-11 17:53:56.7850,0.27,-0.97,1.06,1.46
2022-08-11 17:53:56.7950,0.11,-0.34,1.26,1.3
2022-08-11 17:53:56.8050,0.29,0.44,1.15,1.26
2022-08-11 17:53:56.8150,0.47,0.53,0.72,1.01
2022-08-11 17:53:56.8340,0.47,0.26,0.49,0.72
2022-08-11 17:53:56.8370,0.17,-0.5,0.31,0.61
2022-08-11 17:53:56.8440,-0.04,-1.4,0.1,1.4
2022-08-11 17:53:56.8550,-0.3,-1.68,0.08,1.7
2022-08-11 17:53:56.8640,-0.62,-1.38,0.21,1.52
2022-08-11 17:53:56.8750,-0.77,-1.16,0.35,1.43
2022-08-11 17:53:56.8850,-0.52,-0.99,0.38,1.18
2022-08-11 17:53:56.8950,-0.01,-1.29,0.5,1.38
2022-08-11 17:53:56.9040,0.13,-1.58,0.77,1.76
2022-08-11 17:53:56.9140,0.11,-1.4,0.99,1.71
2022-08-11 17:53:56.9350,0.1,-1.55,1.14,1.92
2022-08-11 17:53:56.9380,0.19,-1.65,1.16,2.02
2022-08-11 17:53:56.9430,0.2,-1.71,1.22,2.11
2022-08-11 17:53:56.9540,0.17,-1.49,1.49,2.11
2022-08-11 17:53:56.9630,-0.24,-0.82,1.63,1.84
2022-08-11 17:53:56.9750,-0.12,-1.39,1.5,2.04
2022-08-11 17:53:56.9850,0.1,-2.09,1.76,2.73
2022-08-11 17:53:56.9930,0.49,-1.84,1.71,2.55
2022-08-11 17:53:57.0030,0.68,-0.61,0.94,1.31
2022-08-11 17:53:57.0130,1.17,0.32,-0.03,1.21
2022-08-11 17:53:57.0370,1.17,0.37,-0.22,1.24
2022-08-11 17:53:57.0400,0.93,0.35,0.0,0.99
2022-08-11 17:53:57.0430,0.71,0.41,0.2,0.84
2022-08-11 17:53:57.0540,0.21,1.6,-0.24,1.63
2022-08-11 17:53:57.0630,0.54,2.8,-0.97,3.01
2022-08-11 17:53:57.0750,0.75,3.85,-2.13,4.46
2022-08-11 17:53:57.0830,1.5,3.3,-2.52,4.41
2022-08-11 17:53:57.0930,2.28,1.92,-2.15,3.67
2022-08-11 17:53:57.1050,2.64,0.93,-1.36,3.11
2022-08-11 17:53:57.1130,2.34,0.53,-0.47,2.44
2022-08-11 17:53:57.1230,1.06,0.52,0.26,1.2
2022-08-11 17:53:57.1410,-0.75,0.25,1.19,1.42
2022-08-11 17:53:57.1450,-2.15,-0.61,1.9,2.93
2022-08-11 17:53:57.1520,-1.84,-1.4,1.98,3.04
2022-08-11 17:53:57.1620,-0.92,-1.76,1.42,2.44
2022-08-11 17:53:57.1730,1.7,-1.56,1.05,2.53
2022-08-11 17:53:57.1820,2.01,0.29,1.17,2.34
2022-08-11 17:53:57.1920,0.64,3.39,1.06,3.6
2022-08-11 17:53:57.2040,2.16,4.34,-0.59,4.88
2022-08-11 17:53:57.2120,4.27,3.78,-0.99,5.78
2022-08-11 17:53:57.2240,2.79,1.28,-1.54,3.43
2022-08-11 17:53:57.2390,-2.06,-1.77,-2.53,3.71
2022-08-11 17:53:57.2430,-4.64,-3.52,-2.93,6.51
2022-08-11 17:53:57.2520,-2.68,-1.88,-0.29,3.28
2022-08-11 17:53:57.2620,-0.7,-0.59,0.98,1.34
2022-08-11 17:53:57.2730,-0.5,-0.03,1.48,1.56
2022-08-11 17:53:57.2810,-0.78,0.74,1.49,1.83
2022-08-11 17:53:57.2920,-0.26,-0.5,1.12,1.25
2022-08-11 17:53:57.3010,0.51,-1.03,0.0,1.14
2022-08-11 17:53:57.3110,0.61,-0.01,-0.43,0.74
2022-08-11 17:53:57.3210,0.03,1.03,0.07,1.03
2022-08-11 17:53:57.3360,-0.42,1.33,-0.08,1.39
2022-08-11 17:53:57.3410,0.08,1.05,-0.75,1.29
2022-08-11 17:53:57.3510,1.03,0.38,-1.13,1.57
2022-08-11 17:53:57.3610,1.8,-0.64,-1.09,2.19
2022-08-11 17:53:57.3700,1.76,-0.66,2.44,3.08
2022-08-11 17:53:57.3820,0.91,-2.25,6.38,6.82
2022-08-11 17:53:57.3920,2.05,-1.71,1.9,3.27
2022-08-11 17:53:57.4000,1.71,-0.43,-0.38,1.8
2022-08-11 17:53:57.4100,1.09,-0.19,-1.9,2.19
2022-08-11 17:53:57.4200,0.13,0.65,-0.63,0.91
2022-08-11 17:53:57.4360,0.23,1.26,0.65,1.43
2022-08-11 17:53:57.4400,0.76,1.02,0.51,1.37
2022-08-11 17:53:57.4510,0.16,0.97,0.01,0.98
2022-08-11 17:53:57.4600,-0.01,0.7,-0.98,1.2
2022-08-11 17:53:57.4710,0.27,-0.39,-0.38,0.6
2022-08-11 17:53:57.4800,0.14,-0.4,-0.05,0.42
2022-08-11 17:53:57.4900,0.15,-0.13,-0.31,0.36
2022-08-11 17:53:57.5010,-0.32,0.22,0.26,0.46
2022-08-11 17:53:57.5100,-1.15,0.58,0.3,1.32
2022-08-11 17:53:57.5200,-2.27,0.62,2.72,3.59
2022-08-11 17:53:57.5410,-1.48,0.21,2.05,2.53
2022-08-11 17:53:57.5440,-0.47,0.18,-0.82,0.96
2022-08-11 17:53:57.5500,-0.64,-0.06,-0.86,1.07
2022-08-11 17:53:57.5610,-0.26,-0.12,-0.35,0.45
2022-08-11 17:53:57.5700,-0.03,-0.01,-0.27,0.27
2022-08-11 17:53:57.5790,0.51,0.24,-0.61,0.83
2022-08-11 17:53:57.5890,1.23,0.2,-1.02,1.61
2022-08-11 17:53:57.5990,2.32,2.39,-2.18,3.98
2022-08-11 17:53:57.6090,0.54,0.72,-0.46,1.01
2022-08-11 17:53:57.6190,-1.25,0.26,1.71,2.13
2022-08-11 17:53:57.6370,-0.8,0.28,1.56,1.77
2022-08-11 17:53:57.6400,-0.55,-0.07,1.05,1.18
2022-08-11 17:53:57.6480,-0.3,-0.5,0.65,0.87
2022-08-11 17:53:57.6580,0.02,-0.81,0.88,1.19
2022-08-11 17:53:57.6690,0.15,-0.84,1.04,1.34
2022-08-11 17:53:57.6780,0.31,-0.74,1.41,1.62
2022-08-11 17:53:57.6900,-0.21,-0.4,1.01,1.1
2022-08-11 17:53:57.6980,-0.76,0.17,0.18,0.79
2022-08-11 17:53:57.7080,-0.75,0.42,-0.23,0.88
2022-08-11 17:53:57.7180,-0.58,0.28,-0.32,0.71
2022-08-11 17:53:57.7400,-0.45,0.04,-0.25,0.51
2022-08-11 17:53:57.7420,-0.47,-0.22,-0.01,0.51
2022-08-11 17:53:57.7480,-0.41,-0.55,0.23,0.72
2022-08-11 17:53:57.7580,-0.1,-0.86,0.2,0.88
2022-08-11 17:53:57.7690,0.1,-0.85,0.04,0.85
2022-08-11 17:53:57.7780,0.12,-0.7,-0.04,0.71
2022-08-11 17:53:57.7870,0.19,-0.57,0.13,0.61
2022-08-11 17:53:57.7980,0.16,-0.22,0.21,0.34
2022-08-11 17:53:57.8080,0.05,0.23,0.27,0.35
2022-08-11 17:53:57.8170,0.05,0.33,0.44,0.55
2022-08-11 17:53:57.8410,0.33,0.37,0.49,0.69
2022-08-11 17:53:57.8430,0.65,0.21,0.33,0.75
2022-08-11 17:53:57.8470,0.84,0.08,0.17,0.86
2022-08-11 17:53:57.8570,1.22,0.1,0.28,1.25
2022-08-11 17:53:57.8680,1.24,0.4,0.35,1.34
2022-08-11 17:53:57.8780,0.77,0.53,0.2,0.95
2022-08-11 17:53:57.8870,0.68,0.45,0.36,0.89
2022-08-11 17:53:57.8990,0.83,0.23,0.63,1.06
2022-08-11 17:53:57.9070,0.5,-0.03,0.66,0.82
2022-08-11 17:53:57.9170,0.1,0.09,0.38,0.4
2022-08-11 17:53:57.9270,0.39,0.31,-0.13,0.51
2022-08-11 17:53:57.9440,0.73,0.32,-0.51,0.94
2022-08-11 17:53:57.9470,0.57,0.19,-0.3,0.67
2022-08-11 17:53:57.9570,0.5,0.15,-0.09,0.52
2022-08-11 17:53:57.9670,0.33,0.24,0.14,0.43
2022-08-11 17:53:57.9760,0.14,0.31,0.29,0.44
2022-08-11 17:53:57.9870,-0.15,0.3,0.3,0.45
2022-08-11 17:53:57.9960,-0.15,0.0,0.34,0.37
2022-08-11 17:53:58.0080,-0.18,-0.34,0.54,0.66
2022-08-11 17:53:58.0160,0.08,-0.13,0.42,0.44
2022-08-11 17:53:58.0260,0.24,0.0,0.27,0.36
2022-08-11 17:53:58.0430,0.4,-0.12,0.42,0.59
2022-08-11 17:53:58.0460,0.8,-0.12,0.07,0.81
2022-08-11 17:53:58.0560,0.24,0.45,0.04,0.51
2022-08-11 17:53:58.0650,-0.12,0.88,-0.04,0.88
2022-08-11 17:53:58.0750,-0.14,0.84,0.04,0.85
2022-08-11 17:53:58.0850,-0.05,0.37,0.43,0.56
2022-08-11 17:53:58.0950,0.05,0.04,0.61,0.61
2022-08-11 17:53:58.1070,0.2,-0.15,0.56,0.61
2022-08-11 17:53:58.1150,0.36,-0.3,0.45,0.64
2022-08-11 17:53:58.1250,0.35,-0.37,0.39,0.64
2022-08-11 17:53:58.1410,0.15,-0.2,0.45,0.51
2022-08-11 17:53:58.1450,0.21,0.09,0.17,0.28
2022-08-11 17:53:58.1560,0.26,0.47,-0.18,0.56
2022-08-11 17:53:58.1650,0.24,0.6,-0.05,0.64
2022-08-11 17:53:58.1750,0.07,0.44,0.29,0.53
2022-08-11 17:53:58.1850,0.23,0.1,0.64,0.68
2022-08-11 17:53:58.1950,0.44,-0.29,1.03,1.15
2022-08-11 17:53:58.2040,0.6,-0.51,0.84,1.15
2022-08-11 17:53:58.2150,0.54,-0.2,0.18,0.6
2022-08-11 17:53:58.2260,0.42,0.09,-0.1,0.44
2022-08-11 17:53:58.2400,0.55,-0.01,-0.25,0.6
2022-08-11 17:53:58.2440,0.34,-0.29,0.33,0.55
2022-08-11 17:53:58.2550,0.36,-0.8,0.72,1.13
2022-08-11 17:53:58.2650,0.18,-0.91,0.82,1.23
2022-08-11 17:53:58.2750,-0.69,-0.92,0.45,1.23
2022-08-11 17:53:58.2850,-1.49,-0.25,0.23,1.52
2022-08-11 17:53:58.2940,-0.25,0.94,-0.7,1.19
2022-08-11 17:53:58.3040,1.2,0.42,-0.65,1.42
2022-08-11 17:53:58.3150,0.96,-0.12,-0.2,0.98
2022-08-11 17:53:58.3240,-0.25,0.03,-0.45,0.51
2022-08-11 17:53:58.3450,-0.97,0.48,-0.44,1.16
2022-08-11 17:53:58.3470,-1.25,0.47,-0.1,1.33
2022-08-11 17:53:58.3540,-1.16,0.39,0.27,1.25
2022-08-11 17:53:58.3630,-0.38,1.17,-0.12,1.23
2022-08-11 17:53:58.3750,0.81,1.46,-0.53,1.75
2022-08-11 17:53:58.3830,0.69,0.51,0.07,0.86
2022-08-11 17:53:58.3930,0.14,0.05,0.79,0.8
2022-08-11 17:53:58.4050,0.71,0.02,0.91,1.15
2022-08-11 17:53:58.4130,1.12,-0.17,1.14,1.6
2022-08-11 17:53:58.4230,0.96,-0.27,1.5,1.8
2022-08-11 17:53:58.4440,0.67,-0.4,1.38,1.58
2022-08-11 17:53:58.4470,0.37,-0.38,0.97,1.1
2022-08-11 17:53:58.4530,0.05,0.21,0.33,0.39
2022-08-11 17:53:58.4640,0.1,0.68,-0.15,0.7
2022-08-11 17:53:58.4730,-0.08,0.8,-0.44,0.91
2022-08-11 17:53:58.4830,0.22,0.57,-0.58,0.84
2022-08-11 17:53:58.4940,0.91,0.12,-0.16,0.93
2022-08-11 17:53:58.5020,0.91,-0.13,0.03,0.91
2022-08-11 17:53:58.5120,0.65,-0.3,0.07,0.71
2022-08-11 17:53:58.5230,0.31,-0.38,0.24,0.54
2022-08-11 17:53:58.5470,0.13,-0.39,0.25,0.48
2022-08-11 17:53:58.5490,-0.22,-0.17,0.11,0.29
2022-08-11 17:53:58.5520,-0.23,0.07,-0.12,0.26
2022-08-11 17:53:58.5630,-0.03,0.13,-0.27,0.3
2022-08-11 17:53:58.5730,0.07,0.04,-0.19,0.2
2022-08-11 17:53:58.5820,-0.12,-0.02,0.13,0.17
2022-08-11 17:53:58.5920,-0.05,-0.25,0.39,0.46
2022-08-11 17:53:58.6030,-0.46,-0.11,0.46,0.65
2022-08-11 17:53:58.6120,-0.5,-0.11,0.55,0.75
2022-08-11 17:53:58.6240,-0.89,0.19,0.8,1.21
2022-08-11 17:53:58.6460,-0.9,0.22,0.22,0.95
2022-08-11 17:53:58.6480,-0.29,0.26,-0.01,0.38
2022-08-11 17:53:58.6510,0.18,0.06,0.1,0.21
2022-08-11 17:53:58.6620,0.2,-0.15,0.17,0.3
2022-08-11 17:53:58.6720,0.4,-0.19,0.2,0.48
2022-08-11 17:53:58.6810,0.59,-0.37,0.1,0.7
2022-08-11 17:53:58.6920,0.21,-0.26,0.22,0.4
2022-08-11 17:53:58.7010,-0.07,-0.17,0.45,0.48
2022-08-11 17:53:58.7110,-0.24,-0.02,0.28,0.36
2022-08-11 17:53:58.7210,-0.41,0.18,0.06,0.45
2022-08-11 17:53:58.7310,-0.06,0.02,-0.13,0.14
2022-08-11 17:53:58.7440,0.15,0.08,-0.05,0.17
2022-08-11 17:53:58.7510,-0.07,0.12,-0.03,0.14
2022-08-11 17:53:58.7610,0.06,0.09,-0.06,0.12
2022-08-11 17:53:58.7710,0.35,-0.07,0.1,0.37
2022-08-11 17:53:58.7820,0.34,-0.23,0.45,0.6
2022-08-11 17:53:58.7920,-0.08,0.07,0.66,0.66
2022-08-11 17:53:58.8000,-0.43,0.46,0.64,0.89
2022-08-11 17:53:58.8100,-0.49,0.5,0.35,0.78
2022-08-11 17:53:58.8220,-0.23,0.47,-0.19,0.55
2022-08-11 17:53:58.8310,0.44,0.31,-0.01,0.53
2022-08-11 17:53:58.8450,0.75,-0.1,0.38,0.84
2022-08-11 17:53:58.8500,0.6,-0.25,0.49,0.81
2022-08-11 17:53:58.8600,0.41,-0.12,0.59,0.72
2022-08-11 17:53:58.8700,0.18,0.09,0.38,0.43
2022-08-11 17:53:58.8810,0.05,-0.04,0.21,0.21
2022-08-11 17:53:58.8910,0.0,-0.26,0.22,0.34
2022-08-11 17:53:58.9000,-0.03,-0.24,0.12,0.26
2022-08-11 17:53:58.9110,0.01,-0.08,0.05,0.09
2022-08-11 17:53:58.9200,-0.36,-0.05,0.08,0.37
2022-08-11 17:53:58.9290,-0.77,-0.01,0.2,0.79
2022-08-11 17:53:58.9460,-0.78,0.09,0.05,0.78
2022-08-11 17:53:58.9490,-0.5,0.28,-0.1,0.58
2022-08-11 17:53:58.9600,-0.15,0.24,-0.38,0.47
2022-08-11 17:53:58.9700,-0.12,0.03,-0.21,0.24
2022-08-11 17:53:58.9810,-0.37,-0.17,-0.02,0.4
2022-08-11 17:53:58.9900,-0.68,-0.09,0.04,0.68
2022-08-11 17:53:59.0010,-1.1,0.09,0.26,1.13
2022-08-11 17:53:59.0090,-1.19,0.14,0.39,1.26
2022-08-11 17:53:59.0210,-0.91,-0.1,0.38,0.99
2022-08-11 17:53:59.0290,-0.41,-0.2,0.23,0.51
2022-08-11 17:53:59.0420,0.16,-0.29,0.1,0.34
2022-08-11 17:53:59.0480,0.49,-0.25,-0.17,0.57
2022-08-11 17:53:59.0590,0.63,-0.18,-0.38,0.75
2022-08-11 17:53:59.0700,0.83,-0.25,-0.02,0.86
2022-08-11 17:53:59.0780,0.62,0.04,0.41,0.74
2022-08-11 17:53:59.0890,-0.85,0.24,1.34,1.6
2022-08-11 17:53:59.0980,-1.05,-0.5,1.56,1.94
2022-08-11 17:53:59.1080,-0.37,-0.19,0.27,0.49
2022-08-11 17:53:59.1180,-0.18,0.01,0.48,0.51
2022-08-11 17:53:59.1280,-0.4,-0.04,0.23,0.46
2022-08-11 17:53:59.1490,-1.59,0.21,-0.18,1.61
2022-08-11 17:53:59.1510,-1.88,0.44,-0.21,1.94
2022-08-11 17:53:59.1570,-1.41,0.19,-0.28,1.45
2022-08-11 17:53:59.1680,-0.83,-0.53,-0.11,0.99
2022-08-11 17:53:59.1780,-0.05,-1.05,0.32,1.09
2022-08-11 17:53:59.1870,-0.01,-0.66,0.61,0.89
2022-08-11 17:53:59.1990,-0.43,-0.34,0.7,0.88
2022-08-11 17:53:59.2080,-0.83,0.23,0.8,1.17
2022-08-11 17:53:59.2190,-0.71,0.45,0.25,0.87
2022-08-11 17:53:59.2270,0.08,0.19,0.06,0.21
2022-08-11 17:53:59.2460,0.53,0.04,0.46,0.7
2022-08-11 17:53:59.2480,0.3,0.17,0.46,0.57
2022-08-11 17:53:59.2580,0.53,-0.06,0.62,0.81
2022-08-11 17:53:59.2680,1.34,-0.43,0.39,1.46
2022-08-11 17:53:59.2770,1.54,-0.63,0.08,1.66
2022-08-11 17:53:59.2880,1.28,-0.84,0.08,1.53
2022-08-11 17:53:59.2970,0.89,-0.84,0.4,1.28
2022-08-11 17:53:59.3070,0.99,-0.6,0.19,1.17
2022-08-11 17:53:59.3170,1.03,-0.14,-0.09,1.04
2022-08-11 17:53:59.3270,0.97,0.56,-0.15,1.13
2022-08-11 17:53:59.3500,-0.11,0.8,-0.53,0.96
2022-08-11 17:53:59.3520,-0.46,0.95,-0.27,1.08
2022-08-11 17:53:59.3560,-0.56,0.99,-0.53,1.25
2022-08-11 17:53:59.3670,-0.57,0.64,-0.66,1.08
2022-08-11 17:53:59.3780,-0.32,-0.11,0.08,0.34
2022-08-11 17:53:59.3870,0.49,-1.24,1.21,1.8
2022-08-11 17:53:59.3960,-0.04,-1.81,1.2,2.17
2022-08-11 17:53:59.4080,-0.37,-1.7,1.25,2.14
2022-08-11 17:53:59.4160,0.28,-1.16,0.64,1.35
2022-08-11 17:53:59.4260,0.55,-0.15,0.19,0.6
2022-08-11 17:53:59.4510,0.14,0.5,0.4,0.65
2022-08-11 17:53:59.4540,-0.5,0.5,0.14,0.72
2022-08-11 17:53:59.4570,-0.03,0.0,-0.62,0.62
2022-08-11 17:53:59.4650,0.73,-0.66,-1.45,1.75
2022-08-11 17:53:59.4780,-0.48,-1.65,-1.04,2.0
2022-08-11 17:53:59.4870,0.02,-1.79,-0.36,1.82
2022-08-11 17:53:59.4950,0.44,-2.06,-0.17,2.11
2022-08-11 17:53:59.5070,0.77,-2.11,0.91,2.42
2022-08-11 17:53:59.5150,0.89,-1.55,1.75,2.5
2022-08-11 17:53:59.5250,-0.29,-0.87,1.5,1.75
2022-08-11 17:53:59.5350,-1.49,-0.57,1.18,1.98
2022-08-11 17:53:59.5500,-2.12,-1.04,1.36,2.72
2022-08-11 17:53:59.5550,-1.87,-1.3,0.01,2.27
2022-08-11 17:53:59.5660,-0.83,-0.73,-1.68,2.01
2022-08-11 17:53:59.5750,-0.08,0.25,-0.03,0.26
2022-08-11 17:53:59.5850,0.25,1.08,1.66,1.99
2022-08-11 17:53:59.5960,0.03,1.22,1.74,2.12
2022-08-11 17:53:59.6040,0.16,1.39,1.23,1.86
2022-08-11 17:53:59.6160,0.07,2.03,0.62,2.12
2022-08-11 17:53:59.6260,0.37,2.64,0.55,2.72
2022-08-11 17:53:59.6350,0.49,2.74,0.11,2.78
2022-08-11 17:53:59.6490,0.51,2.13,-0.5,2.24
2022-08-11 17:53:59.6550,0.65,1.08,-0.35,1.3
2022-08-11 17:53:59.6640,-0.7,0.54,0.4,0.97
2022-08-11 17:53:59.6750,-1.31,0.27,1.32,1.87
2022-08-11 17:53:59.6850,-1.07,0.06,2.29,2.52
2022-08-11 17:53:59.6940,-0.37,-0.18,1.74,1.78
2022-08-11 17:53:59.7040,0.55,0.06,0.85,1.01
2022-08-11 17:53:59.7140,1.41,0.45,0.31,1.51
2022-08-11 17:53:59.7250,2.31,0.37,-0.18,2.34
2022-08-11 17:53:59.7340,2.57,0.13,-1.23,2.85
2022-08-11 17:53:59.7500,2.11,0.03,-1.37,2.51
2022-08-11 17:53:59.7530,1.49,0.2,-0.45,1.56
2022-08-11 17:53:59.7640,0.5,-0.15,-0.28,0.59
2022-08-11 17:53:59.7750,-0.3,-0.68,-0.04,0.74
2022-08-11 17:53:59.7830,0.01,-1.24,0.35,1.28
2022-08-11 17:53:59.7930,0.66,-0.89,-0.27,1.14
2022-08-11 17:53:59.8050,-0.77,1.04,-1.44,1.93
2022-08-11 17:53:59.8140,0.03,1.42,-2.25,2.66
2022-08-11 17:53:59.8230,1.93,-0.65,-1.75,2.68
2022-08-11 17:53:59.8350,1.59,-1.5,-0.36,2.21
2022-08-11 17:53:59.8490,-0.13,-1.16,-0.59,1.3
2022-08-11 17:53:59.8530,-0.48,-1.36,0.06,1.44
2022-08-11 17:53:59.8630,-0.04,-1.77,1.11,2.08
2022-08-11 17:53:59.8730,-0.68,-0.8,1.55,1.87
2022-08-11 17:53:59.8840,-1.73,1.52,2.48,3.38
2022-08-11 17:53:59.8930,-0.77,2.51,1.55,3.04
2022-08-11 17:53:59.9020,0.81,2.09,-0.25,2.25
2022-08-11 17:53:59.9120,1.16,0.1,-2.7,2.94
2022-08-11 17:53:59.9230,0.6,-1.05,-3.86,4.04
2022-08-11 17:53:59.9320,-0.63,-0.49,-1.99,2.14
2022-08-11 17:53:59.9530,0.05,-0.56,-0.54,0.77
2022-08-11 17:53:59.9550,1.04,-0.6,-0.72,1.4
2022-08-11 17:53:59.9630,1.24,1.18,1.25,2.11
2022-08-11 17:53:59.9720,1.51,2.26,3.44,4.38
2022-08-11 17:53:59.9840,1.11,1.04,4.44,4.69
2022-08-11 17:53:59.9930,-0.26,-0.45,4.91,4.93
2022-08-11 17:54:00.0020,-0.96,-1.35,4.78,5.05
2022-08-11 17:54:00.0120,-0.08,-1.16,4.25,4.4
2022-08-11 17:54:00.0220,1.02,0.35,3.64,3.79
2022-08-11 17:54:00.0310,-3.09,1.73,5.31,6.38
2022-08-11 17:54:00.0510,-0.19,-0.68,1.65,1.79
2022-08-11 17:54:00.0540,-1.95,1.26,0.84,2.46
2022-08-11 17:54:00.0620,-1.91,1.21,-0.84,2.41
2022-08-11 17:54:00.0720,-0.21,1.09,-5.09,5.2
2022-08-11 17:54:00.0830,1.52,1.69,-7.12,7.47
2022-08-11 17:54:00.0930,1.85,1.31,-6.23,6.62
2022-08-11 17:54:00.1030,1.83,0.06,-3.05,3.55
2022-08-11 17:54:00.1110,1.29,-1.25,0.26,1.81
2022-08-11 17:54:00.1210,0.08,-1.96,2.02,2.81
2022-08-11 17:54:00.1310,-0.2,-2.0,2.98,3.59
2022-08-11 17:54:00.1550,-1.35,-0.39,1.51,2.06
2022-08-11 17:54:00.1580,-0.42,0.62,0.75,1.05
2022-08-11 17:54:00.1600,0.63,0.32,0.27,0.75
2022-08-11 17:54:00.1710,0.95,0.08,-0.39,1.03
2022-08-11 17:54:00.1800,1.18,-0.02,-0.23,1.2
2022-08-11 17:54:00.1920,1.17,-0.23,0.22,1.21
2022-08-11 17:54:00.2000,1.35,-0.39,0.63,1.53
2022-08-11 17:54:00.2100,0.87,0.26,0.39,0.98
2022-08-11 17:54:00.2200,0.27,0.41,-0.23,0.54
2022-08-11 17:54:00.2310,0.01,0.14,-0.63,0.64
2022-08-11 17:54:00.2540,0.05,0.09,-0.42,0.43
2022-08-11 17:54:00.2560,1.01,-0.19,0.43,1.11
2022-08-11 17:54:00.2590,1.29,-0.82,0.63,1.65
2022-08-11 17:54:00.2710,0.35,-0.47,-0.69,0.9
2022-08-11 17:54:00.2810,0.64,0.38,0.21,0.77
2022-08-11 17:54:00.2900,0.89,0.22,1.25,1.55
2022-08-11 17:54:00.3010,0.23,0.3,-0.37,0.52
2022-08-11 17:54:00.3100,-0.54,0.87,-0.78,1.28
2022-08-11 17:54:00.3190,-0.65,0.8,-0.59,1.18
2022-08-11 17:54:00.3300,-0.26,0.08,-0.36,0.45
2022-08-11 17:54:00.3410,-0.12,-0.38,-0.05,0.4
2022-08-11 17:54:00.3560,0.41,-0.45,0.96,1.13
2022-08-11 17:54:00.3590,1.0,-0.8,1.56,2.01
2022-08-11 17:54:00.3700,0.94,-0.51,1.78,2.07
2022-08-11 17:54:00.3800,0.81,-0.61,0.46,1.11
2022-08-11 17:54:00.3910,0.84,-0.85,-1.02,1.57
2022-08-11 17:54:00.3990,0.78,-0.85,-1.89,2.21
2022-08-11 17:54:00.4110,0.54,-0.88,-2.63,2.82
2022-08-11 17:54:00.4200,-0.38,-0.09,-2.79,2.81
2022-08-11 17:54:00.4290,-1.39,0.55,-2.38,2.81
2022-08-11 17:54:00.4390,-1.37,0.1,-0.97,1.68
2022-08-11 17:54:00.4530,-1.79,-0.7,1.24,2.28
2022-08-11 17:54:00.4580,-2.14,0.08,2.45,3.25
2022-08-11 17:54:00.4680,-2.19,0.42,2.07,3.04
2022-08-11 17:54:00.4790,-1.56,0.08,1.9,2.45
2022-08-11 17:54:00.4900,-0.55,-0.44,2.89,2.97
2022-08-11 17:54:00.4980,-0.09,-1.78,2.02,2.69
2022-08-11 17:54:00.5080,0.23,-3.49,0.21,3.5
2022-08-11 17:54:00.5180,0.57,-5.5,0.27,5.53
2022-08-11 17:54:00.5280,0.59,-4.61,-0.78,4.71
2022-08-11 17:54:00.5400,0.48,-2.81,-0.56,2.9
2022-08-11 17:54:00.5540,0.15,-0.32,-1.22,1.27
2022-08-11 17:54:00.5570,-0.65,2.04,-0.42,2.18
2022-08-11 17:54:00.5680,-1.1,2.1,0.89,2.53
2022-08-11 17:54:00.5780,-0.56,0.06,0.1,0.57
2022-08-11 17:54:00.5890,-1.07,0.0,-0.62,1.23
2022-08-11 17:54:00.5970,-1.86,1.53,-1.39,2.78
2022-08-11 17:54:00.6070,-0.78,-1.88,-0.55,2.1
2022-08-11 17:54:00.6190,-0.06,-3.62,-0.27,3.63
2022-08-11 17:54:00.6280,-0.29,1.06,-0.03,1.09
2022-08-11 17:54:00.6370,1.2,0.88,4.34,4.58
2022-08-11 17:54:00.6530,-0.38,0.47,3.13,3.18
2022-08-11 17:54:00.6570,-1.06,0.82,0.27,1.36
2022-08-11 17:54:00.6670,-0.95,0.16,-0.5,1.08
2022-08-11 17:54:00.6780,-0.93,-0.47,-0.65,1.22
2022-08-11 17:54:00.6880,-0.02,-3.16,-5.06,5.96
2022-08-11 17:54:00.6970,2.05,-8.58,-11.67,14.62
2022-08-11 17:54:00.7080,6.32,-10.58,4.3,13.05
2022-08-11 17:54:00.7170,0.75,-4.57,13.72,14.48
2022-08-11 17:54:00.7270,-3.21,9.33,-0.25,9.86
2022-08-11 17:54:00.7370,-5.17,11.32,0.52,12.45
2022-08-11 17:54:00.7550,-1.44,4.43,0.09,4.65
2022-08-11 17:54:00.7580,0.81,1.46,-3.74,4.09
2022-08-11 17:54:00.7670,-0.32,2.35,-0.29,2.38
2022-08-11 17:54:00.7770,-1.0,4.11,0.1,4.23
2022-08-11 17:54:00.7870,-1.11,4.53,-0.27,4.67
2022-08-11 17:54:00.7960,-1.17,3.65,1.13,3.99
2022-08-11 17:54:00.8080,-1.66,2.65,2.15,3.79
2022-08-11 17:54:00.8160,-1.23,0.49,2.06,2.44
2022-08-11 17:54:00.8260,-0.94,-1.0,1.73,2.2
2022-08-11 17:54:00.8360,-0.08,-3.28,0.72,3.35
2022-08-11 17:54:00.8550,1.3,-3.69,-1.86,4.33
2022-08-11 17:54:00.8590,0.22,-2.26,-1.84,2.92
2022-08-11 17:54:00.8650,2.48,-2.49,0.52,3.55
2022-08-11 17:54:00.8760,3.71,-3.5,-4.63,6.88
2022-08-11 17:54:00.8860,2.57,0.37,5.36,5.95
2022-08-11 17:54:00.8970,0.63,2.47,5.92,6.44
2022-08-11 17:54:00.9050,-2.28,2.0,3.4,4.55
2022-08-11 17:54:00.9150,-2.98,2.21,1.52,4.0
2022-08-11 17:54:00.9270,-2.6,2.01,-1.02,3.44
2022-08-11 17:54:00.9360,-1.68,1.81,-2.86,3.77
2022-08-11 17:54:00.9570,-0.48,1.3,-3.4,3.67
2022-08-11 17:54:00.9590,-0.52,2.2,-2.42,3.31
2022-08-11 17:54:00.9650,-0.01,2.1,-1.72,2.71
2022-08-11 17:54:00.9760,0.47,1.4,-0.71,1.63
2022-08-11 17:54:00.9850,0.99,2.04,0.17,2.27
2022-08-11 17:54:00.9960,1.16,2.73,0.6,3.02
2022-08-11 17:54:01.0050,1.35,2.67,1.1,3.18
2022-08-11 17:54:01.0150,0.88,3.1,2.27,3.94
2022-08-11 17:54:01.0250,-0.37,4.65,3.43,5.79
2022-08-11 17:54:01.0340,-0.67,4.75,2.89,5.6
2022-08-11 17:54:01.0580,-0.14,3.11,1.42,3.42
2022-08-11 17:54:01.0600,0.67,2.33,1.12,2.67
2022-08-11 17:54:01.0640,0.54,3.13,0.61,3.23
2022-08-11 17:54:01.0750,0.35,2.71,-0.03,2.73
2022-08-11 17:54:01.0850,0.61,1.61,-0.58,1.81
2022-08-11 17:54:01.0950,0.57,0.38,-1.1,1.29
2022-08-11 17:54:01.1050,0.05,-1.45,-0.34,1.49
2022-08-11 17:54:01.1160,0.01,-4.23,0.14,4.23
2022-08-11 17:54:01.1240,-4.39,-5.57,-3.53,7.92
2022-08-11 17:54:01.1340,-5.9,-6.41,-4.06,9.61
2022-08-11 17:54:01.1460,-0.4,-8.09,3.49,8.81
2022-08-11 17:54:01.1610,1.91,-9.0,4.75,10.35
2022-08-11 17:54:01.1640,5.18,-7.5,-0.2,9.11
2022-08-11 17:54:01.1740,5.52,-1.67,-3.39,6.68
2022-08-11 17:54:01.1840,2.32,3.13,-1.0,4.02
2022-08-11 17:54:01.1950,0.16,5.85,1.19,5.97
2022-08-11 17:54:01.2030,0.76,6.78,0.56,6.84
2022-08-11 17:54:01.2150,2.65,4.15,-1.3,5.09
2022-08-11 17:54:01.2230,-0.09,0.66,0.2,0.69
2022-08-11 17:54:01.2330,-2.05,-1.04,1.19,2.58
2022-08-11 17:54:01.2430,-0.73,-1.69,0.93,2.06
2022-08-11 17:54:01.2590,-0.72,-1.02,0.37,1.3
2022-08-11 17:54:01.2630,1.11,-0.38,0.17,1.18
2022-08-11 17:54:01.2730,0.58,0.29,0.09,0.65
2022-08-11 17:54:01.2840,-0.41,0.69,-0.38,0.88
2022-08-11 17:54:01.2930,0.79,0.22,0.37,0.89
2022-08-11 17:54:01.3050,-0.06,0.25,0.53,0.58
2022-08-11 17:54:01.3120,0.24,-0.2,0.5,0.58
2022-08-11 17:54:01.3230,0.3,-0.36,0.3,0.55
2022-08-11 17:54:01.3320,0.1,-0.31,0.07,0.33
2022-08-11 17:54:01.3430,-0.21,-0.03,0.29,0.35
2022-08-11 17:54:01.3600,-0.09,0.37,0.88,0.95
2022-08-11 17:54:01.3630,0.02,0.64,1.3,1.44
2022-08-11 17:54:01.3720,-0.27,0.68,0.91,1.16
2022-08-11 17:54:01.3830,-0.37,0.5,0.27,0.67
2022-08-11 17:54:01.3930,0.06,0.15,0.37,0.4
2022-08-11 17:54:01.4020,0.69,-0.23,0.4,0.83
2022-08-11 17:54:01.4120,1.01,-0.69,0.03,1.22
2022-08-11 17:54:01.4230,0.57,-0.84,0.11,1.02
2022-08-11 17:54:01.4310,0.27,-0.85,0.26,0.92
2022-08-11 17:54:01.4430,-0.07,-0.65,0.19,0.68
2022-08-11 17:54:01.4560,-3.11,0.51,-0.35,3.17
2022-08-11 17:54:01.4610,-3.95,1.64,-0.63,4.32
2022-08-11 17:54:01.4720,-0.62,0.97,-0.01,1.15
2022-08-11 17:54:01.4820,1.02,0.24,0.99,1.44
2022-08-11 17:54:01.4910,0.35,0.29,1.41,1.48
2022-08-11 17:54:01.5010,-0.47,0.69,0.95,1.26
2022-08-11 17:54:01.5110,-0.23,0.61,0.21,0.68
2022-08-11 17:54:01.5210,0.07,-0.15,-0.6,0.62
2022-08-11 17:54:01.5320,0.06,-0.72,-0.71,1.01
2022-08-11 17:54:01.5410,0.06,-0.74,-0.34,0.81
2022-08-11 17:54:01.5600,0.33,-0.43,0.05,0.54
2022-08-11 17:54:01.5630,0.57,0.05,0.2,0.6
2022-08-11 17:54:01.5710,0.65,0.41,0.12,0.77
2022-08-11 17:54:01.5810,0.61,0.47,0.06,0.77
2022-08-11 17:54:01.5920,0.48,0.19,0.07,0.52
2022-08-11 17:54:01.6000,0.44,-0.28,0.04,0.52
2022-08-11 17:54:01.6100,0.58,-0.56,-0.09,0.81
2022-08-11 17:54:01.6220,0.65,-0.46,-0.36,0.87
2022-08-11 17:54:01.6300,0.56,-0.1,-0.58,0.81
2022-08-11 17:54:01.6400,0.57,0.35,-0.51,0.84
2022-08-11 17:54:01.6590,0.59,0.43,-0.3,0.78
2022-08-11 17:54:01.6620,0.39,0.36,-0.29,0.6
2022-08-11 17:54:01.6700,0.43,-0.09,-0.08,0.44
2022-08-11 17:54:01.6800,0.25,-0.08,-0.5,0.56
2022-08-11 17:54:01.6910,0.16,-0.38,-0.2,0.45
2022-08-11 17:54:01.7000,0.1,-0.57,-0.03,0.57
2022-08-11 17:54:01.7110,0.1,-0.1,-0.47,0.49
2022-08-11 17:54:01.7200,-0.08,0.53,-0.45,0.69
2022-08-11 17:54:01.7300,-0.31,1.03,-0.32,1.12
2022-08-11 17:54:01.7410,-0.29,1.15,-0.13,1.19
2022-08-11 17:54:01.7630,-0.29,0.78,-0.03,0.83
2022-08-11 17:54:01.7650,-0.39,0.43,-0.17,0.6
2022-08-11 17:54:01.7690,-0.34,0.07,-0.32,0.47
2022-08-11 17:54:01.7790,-0.09,-0.35,-0.14,0.38
2022-08-11 17:54:01.7890,0.06,-0.43,-0.05,0.43
2022-08-11 17:54:01.8000,0.25,-0.31,0.07,0.4
2022-08-11 17:54:01.8100,0.48,-0.05,0.04,0.48
2022-08-11 17:54:01.8210,0.69,0.12,-0.09,0.7
2022-08-11 17:54:01.8290,0.91,0.19,0.01,0.92
2022-08-11 17:54:01.8390,1.32,0.4,1.33,1.91
2022-08-11 17:54:01.8620,1.03,-0.12,-0.08,1.04
2022-08-11 17:54:01.8650,0.46,-0.34,-0.99,1.14
2022-08-11 17:54:01.8680,0.12,-0.1,-0.85,0.86
2022-08-11 17:54:01.8790,0.14,0.12,-0.64,0.66
2022-08-11 17:54:01.8890,0.25,0.34,0.0,0.42
2022-08-11 17:54:01.9000,-0.14,0.47,-0.24,0.54
2022-08-11 17:54:01.9090,-0.23,0.44,-0.57,0.75
2022-08-11 17:54:01.9180,0.73,0.67,2.78,2.95
2022-08-11 17:54:01.9280,-0.12,0.1,1.17,1.18
2022-08-11 17:54:01.9380,-1.37,-0.88,-2.91,3.33
2022-08-11 17:54:01.9480,-0.55,-0.62,-1.36,1.59
2022-08-11 17:54:01.9630,-0.26,0.09,2.0,2.01
2022-08-11 17:54:01.9680,-0.52,0.48,1.58,1.73
2022-08-11 17:54:01.9780,-0.48,0.54,0.31,0.78
2022-08-11 17:54:01.9880,-0.17,0.48,0.53,0.73
2022-08-11 17:54:01.9980,-0.11,0.31,1.02,1.07
2022-08-11 17:54:02.0070,-0.29,0.03,0.67,0.73
2022-08-11 17:54:02.0190,-0.49,-0.16,0.23,0.56
2022-08-11 17:54:02.0270,-0.47,-0.25,0.1,0.54
2022-08-11 17:54:02.0370,-0.62,-0.3,-0.26,0.73
2022-08-11 17:54:02.0490,-0.36,-0.19,0.03,0.4
2022-08-11 17:54:02.0640,0.04,-0.07,0.49,0.49
2022-08-11 17:54:02.0680,0.0,-0.05,0.45,0.45
2022-08-11 17:54:02.0770,-0.07,-0.03,0.22,0.23
2022-08-11 17:54:02.0880,-0.04,-0.14,0.16,0.21
2022-08-11 17:54:02.0970,-0.12,-0.35,0.08,0.37
2022-08-11 17:54:02.1070,-0.32,-0.48,-0.06,0.57
2022-08-11 17:54:02.1180,-0.49,-0.43,-0.15,0.66
2022-08-11 17:54:02.1270,-0.58,-0.25,-0.14,0.64
2022-08-11 17:54:02.1370,-0.62,0.06,-0.12,0.63
2022-08-11 17:54:02.1470,-0.65,0.36,-0.18,0.76
2022-08-11 17:54:02.1630,-0.65,0.52,-0.18,0.85
2022-08-11 17:54:02.1670,-0.59,0.52,-0.1,0.79
2022-08-11 17:54:02.1770,-0.51,0.44,0.05,0.67
2022-08-11 17:54:02.1880,-0.36,0.32,0.18,0.51
2022-08-11 17:54:02.1960,-0.18,0.12,0.26,0.33
2022-08-11 17:54:02.2060,-0.01,-0.04,0.34,0.34
2022-08-11 17:54:02.2160,0.16,-0.09,0.36,0.4
2022-08-11 17:54:02.2260,0.32,-0.04,0.32,0.45
2022-08-11 17:54:02.2370,0.44,0.05,0.35,0.56
2022-08-11 17:54:02.2460,0.4,0.04,0.28,0.48
2022-08-11 17:54:02.2630,0.4,-0.07,0.21,0.45
2022-08-11 17:54:02.2660,0.48,-0.16,0.23,0.55
2022-08-11 17:54:02.2760,0.54,-0.15,0.26,0.61
2022-08-11 17:54:02.2860,0.45,0.01,0.32,0.55
2022-08-11 17:54:02.2970,0.38,0.22,0.37,0.57
2022-08-11 17:54:02.3050,0.27,0.37,0.28,0.53
2022-08-11 17:54:02.3150,0.12,0.43,0.27,0.52
2022-08-11 17:54:02.3250,-0.04,0.38,0.32,0.49
2022-08-11 17:54:02.3370,-0.24,0.3,0.38,0.54
2022-08-11 17:54:02.3450,-0.34,0.19,0.46,0.6
2022-08-11 17:54:02.3640,-0.25,0.02,0.55,0.6
2022-08-11 17:54:02.3670,-0.05,-0.2,0.61,0.64
2022-08-11 17:54:02.3750,0.19,-0.34,0.46,0.6
2022-08-11 17:54:02.3860,0.46,-0.32,0.34,0.65
2022-08-11 17:54:02.3950,0.68,-0.23,0.31,0.78
2022-08-11 17:54:02.4050,0.8,-0.09,0.28,0.85
2022-08-11 17:54:02.4160,0.81,0.02,0.18,0.83
2022-08-11 17:54:02.4240,0.62,0.09,0.09,0.63
2022-08-11 17:54:02.4350,0.44,0.17,0.13,0.48
2022-08-11 17:54:02.4440,0.37,0.14,0.17,0.43
2022-08-11 17:54:02.4630,0.32,0.03,0.24,0.4
2022-08-11 17:54:02.4660,0.33,-0.03,0.46,0.56
2022-08-11 17:54:02.4750,0.32,-0.04,0.64,0.71
2022-08-11 17:54:02.4850,0.28,-0.03,0.66,0.71
2022-08-11 17:54:02.4950,0.24,0.02,0.52,0.57
2022-08-11 17:54:02.5050,0.22,0.11,0.38,0.45
2022-08-11 17:54:02.5150,0.15,0.27,0.19,0.36
2022-08-11 17:54:02.5250,0.12,0.4,0.03,0.41
2022-08-11 17:54:02.5340,0.15,0.42,0.02,0.44
2022-08-11 17:54:02.5440,0.22,0.3,0.23,0.43
2022-08-11 17:54:02.5670,0.35,0.12,0.49,0.61
2022-08-11 17:54:02.5690,0.51,0.0,0.6,0.78
2022-08-11 17:54:02.5730,0.67,-0.04,0.56,0.87
2022-08-11 17:54:02.5840,0.71,0.02,0.43,0.83
2022-08-11 17:54:02.5940,0.65,0.07,0.23,0.69
2022-08-11 17:54:02.6050,0.52,0.17,0.14,0.56
2022-08-11 17:54:02.6130,0.45,0.18,0.19,0.52
2022-08-11 17:54:02.6250,0.37,0.07,0.22,0.43
2022-08-11 17:54:02.6330,0.29,-0.02,0.34,0.44
2022-08-11 17:54:02.6430,0.29,-0.04,0.55,0.62
2022-08-11 17:54:02.6670,0.39,0.01,0.67,0.77
2022-08-11 17:54:02.6700,0.52,0.05,0.73,0.89
2022-08-11 17:54:02.6730,0.59,0.09,0.66,0.88
2022-08-11 17:54:02.6830,0.66,0.09,0.55,0.86
2022-08-11 17:54:02.6920,0.66,0.03,0.45,0.79
2022-08-11 17:54:02.7040,0.59,0.0,0.39,0.7
2022-08-11 17:54:02.7140,0.42,-0.06,0.34,0.54
2022-08-11 17:54:02.7220,0.21,-0.17,0.34,0.43
2022-08-11 17:54:02.7320,0.04,-0.27,0.45,0.52
2022-08-11 17:54:02.7420,0.04,-0.34,0.52,0.62
2022-08-11 17:54:02.7540,0.15,-0.29,0.47,0.57
2022-08-11 17:54:02.7690,0.24,-0.19,0.31,0.43
2022-08-11 17:54:02.7720,0.32,-0.1,0.23,0.4
2022-08-11 17:54:02.7830,0.44,-0.07,0.37,0.57
2022-08-11 17:54:02.7930,0.45,0.02,0.5,0.67
2022-08-11 17:54:02.8020,0.45,0.05,0.55,0.71
2022-08-11 17:54:02.8130,0.36,0.12,0.53,0.65
2022-08-11 17:54:02.8230,0.14,0.35,0.58,0.69
2022-08-11 17:54:02.8330,-0.04,0.52,0.58,0.78
2022-08-11 17:54:02.8430,-0.11,0.5,0.56,0.75
2022-08-11 17:54:02.8520,-0.07,0.19,0.51,0.54
2022-08-11 17:54:02.8680,0.01,-0.17,0.43,0.46
2022-08-11 17:54:02.8720,0.21,-0.38,0.45,0.62
2022-08-11 17:54:02.8820,0.55,-0.37,0.61,0.9
2022-08-11 17:54:02.8920,0.91,-0.2,0.78,1.21
2022-08-11 17:54:02.9020,1.24,-0.02,0.8,1.47
2022-08-11 17:54:02.9110,1.57,0.08,0.68,1.71
2022-08-11 17:54:02.9210,1.91,0.14,0.56,1.99
2022-08-11 17:54:02.9310,2.18,0.18,0.51,2.24
2022-08-11 17:54:02.9410,2.25,0.18,0.45,2.3
2022-08-11 17:54:02.9510,2.07,0.16,0.49,2.13
2022-08-11 17:54:02.9670,1.76,0.05,0.59,1.85
2022-08-11 17:54:02.9710,1.23,-0.18,0.55,1.35
2022-08-11 17:54:02.9810,0.54,-0.29,0.42,0.74
2022-08-11 17:54:02.9920,0.03,-0.22,0.36,0.42
2022-08-11 17:54:03.0000,-0.16,-0.11,0.37,0.41
2022-08-11 17:54:03.0100,-0.15,-0.01,0.37,0.39
2022-08-11 17:54:03.0200,-0.08,-0.03,0.35,0.36
2022-08-11 17:54:03.0300,0.06,-0.19,0.42,0.46
2022-08-11 17:54:03.0420,0.21,-0.27,0.52,0.62
2022-08-11 17:54:03.0500,0.27,-0.17,0.51,0.6
2022-08-11 17:54:03.0670,0.28,0.09,0.36,0.46
2022-08-11 17:54:03.0700,0.34,0.36,0.28,0.56
2022-08-11 17:54:03.0810,0.38,0.47,0.26,0.65
2022-08-11 17:54:03.0900,0.41,0.33,0.26,0.58
2022-08-11 17:54:03.1010,0.52,0.05,0.39,0.65
2022-08-11 17:54:03.1100,0.72,-0.13,0.51,0.89
2022-08-11 17:54:03.1200,0.94,0.01,0.59,1.1
2022-08-11 17:54:03.1300,1.09,0.31,0.5,1.23
2022-08-11 17:54:03.1400,1.23,0.47,0.31,1.35
2022-08-11 17:54:03.1490,1.24,0.42,0.22,1.32
2022-08-11 17:54:03.1680,0.98,0.28,0.14,1.02
2022-08-11 17:54:03.1720,0.65,0.1,0.24,0.7
2022-08-11 17:54:03.1790,0.32,-0.1,0.49,0.59
2022-08-11 17:54:03.1900,-0.06,-0.36,0.64,0.73
2022-08-11 17:54:03.2000,-0.33,-0.64,0.62,0.95
2022-08-11 17:54:03.2090,-0.55,-0.83,0.53,1.12
2022-08-11 17:54:03.2210,-0.64,-0.84,0.5,1.16
2022-08-11 17:54:03.2290,-0.49,-0.61,0.52,0.93
2022-08-11 17:54:03.2390,-0.25,-0.14,0.57,0.63
2022-08-11 17:54:03.2490,-0.55,0.66,0.83,1.19
2022-08-11 17:54:03.2690,-2.13,2.19,0.81,3.16
2022-08-11 17:54:03.2720,-1.49,1.95,0.66,2.54
2022-08-11 17:54:03.2780,0.57,0.09,0.27,0.63
2022-08-11 17:54:03.2890,0.46,-0.44,-0.81,1.03
2022-08-11 17:54:03.3000,0.92,-0.34,-0.29,1.02
2022-08-11 17:54:03.3090,0.56,-0.62,-0.59,1.02
2022-08-11 17:54:03.3180,0.03,-0.95,-0.6,1.12
2022-08-11 17:54:03.3280,0.93,-0.75,-1.42,1.85
2022-08-11 17:54:03.3380,0.43,0.2,0.62,0.78
2022-08-11 17:54:03.3480,0.08,0.58,1.41,1.52
2022-08-11 17:54:03.3710,0.17,0.52,0.92,1.07
2022-08-11 17:54:03.3730,0.33,0.46,0.71,0.9
2022-08-11 17:54:03.3780,0.25,0.57,0.32,0.69
2022-08-11 17:54:03.3890,0.11,0.64,-0.04,0.65
2022-08-11 17:54:03.3990,0.06,0.56,-0.08,0.56
2022-08-11 17:54:03.4080,-0.1,0.42,-0.1,0.44
2022-08-11 17:54:03.4180,-0.29,0.23,-0.29,0.47
2022-08-11 17:54:03.4270,-0.35,0.01,-0.39,0.52
2022-08-11 17:54:03.4370,-0.38,-0.16,-0.23,0.47
2022-08-11 17:54:03.4490,-0.5,-0.2,0.05,0.54
2022-08-11 17:54:03.4710,-0.62,-0.25,0.23,0.7
2022-08-11 17:54:03.4740,-0.75,-0.41,0.2,0.87
2022-08-11 17:54:03.4770,-0.88,-0.4,0.0,0.96
2022-08-11 17:54:03.4880,-0.91,-0.05,-0.15,0.92
2022-08-11 17:54:03.4980,-0.76,0.17,-0.13,0.78
2022-08-11 17:54:03.5080,-0.62,0.15,-0.11,0.64
2022-08-11 17:54:03.5180,-0.42,0.08,0.01,0.42
2022-08-11 17:54:03.5270,-0.26,0.1,0.11,0.29
2022-08-11 17:54:03.5370,-0.17,0.18,0.17,0.3
2022-08-11 17:54:03.5460,-0.16,0.23,0.13,0.3
2022-08-11 17:54:03.5570,-0.29,0.14,0.01,0.32
2022-08-11 17:54:03.5700,-0.39,0.08,-0.09,0.4
2022-08-11 17:54:03.5770,-0.44,0.1,-0.05,0.45
2022-08-11 17:54:03.5870,-0.43,0.04,0.1,0.44
2022-08-11 17:54:03.5960,-0.33,-0.07,0.14,0.36
2022-08-11 17:54:03.6070,-0.22,-0.08,0.13,0.26
2022-08-11 17:54:03.6160,-0.2,-0.03,0.04,0.2
2022-08-11 17:54:03.6270,-0.11,0.11,-0.11,0.19
2022-08-11 17:54:03.6360,-0.3,0.28,0.15,0.43
2022-08-11 17:54:03.6460,-0.29,0.25,0.15,0.41
2022-08-11 17:54:03.6560,-0.44,0.23,0.02,0.49
2022-08-11 17:54:03.6740,-0.64,0.28,0.0,0.69
2022-08-11 17:54:03.6780,-0.89,0.34,0.18,0.96
2022-08-11 17:54:03.6850,-0.98,0.43,-0.02,1.07
2022-08-11 17:54:03.6970,-0.98,0.3,-0.13,1.03
2022-08-11 17:54:03.7050,-0.7,-0.15,0.39,0.81
2022-08-11 17:54:03.7150,-0.39,-0.32,0.44,0.66
2022-08-11 17:54:03.7250,-0.05,-0.49,0.29,0.57
2022-08-11 17:54:03.7350,0.22,-0.37,0.23,0.48
2022-08-11 17:54:03.7450,0.29,-0.08,0.27,0.4
2022-08-11 17:54:03.7550,0.26,0.08,0.18,0.32
2022-08-11 17:54:03.7700,0.21,0.11,0.12,0.26
2022-08-11 17:54:03.7740,0.21,0.16,0.22,0.34
2022-08-11 17:54:03.7860,0.15,0.12,0.3,0.35
2022-08-11 17:54:03.7960,0.24,-0.25,0.11,0.36
2022-08-11 17:54:03.8050,0.27,-0.38,0.15,0.48
2022-08-11 17:54:03.8150,0.2,-0.07,-0.02,0.21
2022-08-11 17:54:03.8240,0.32,0.1,0.15,0.36
2022-08-11 17:54:03.8340,0.3,0.14,0.44,0.55
2022-08-11 17:54:03.8460,0.3,-0.13,0.3,0.44
2022-08-11 17:54:03.8540,0.36,-0.24,0.07,0.43
2022-08-11 17:54:03.8680,0.5,-0.22,-0.13,0.56
2022-08-11 17:54:03.8740,0.47,0.0,-0.08,0.47
2022-08-11 17:54:03.8850,0.24,0.32,0.04,0.4
2022-08-11 17:54:03.8960,0.04,0.66,0.15,0.67
2022-08-11 17:54:03.9040,0.06,0.71,0.2,0.74
2022-08-11 17:54:03.9140,0.1,0.45,0.18,0.49
2022-08-11 17:54:03.9250,0.04,0.15,0.21,0.26
2022-08-11 17:54:03.9340,0.02,-0.2,0.12,0.23
2022-08-11 17:54:03.9440,-0.01,-0.58,-0.08,0.58
2022-08-11 17:54:03.9540,-0.14,-0.8,-0.28,0.85
2022-08-11 17:54:03.9730,-0.23,-0.67,-0.3,0.76
2022-08-11 17:54:03.9770,-0.2,-0.13,-0.11,0.26
2022-08-11 17:54:03.9830,-0.35,-0.21,-0.14,0.43
2022-08-11 17:54:03.9940,-0.33,-0.24,-0.22,0.46
2022-08-11 17:54:04.0040,-0.33,0.09,-0.13,0.36
2022-08-11 17:54:04.0140,-0.49,0.59,0.15,0.78
2022-08-11 17:54:04.0230,-0.66,0.96,0.37,1.22
2022-08-11 17:54:04.0340,-0.66,0.84,0.2,1.08
2022-08-11 17:54:04.0450,-0.61,0.39,0.09,0.72
2022-08-11 17:54:04.0530,-0.58,-0.01,0.03,0.58
2022-08-11 17:54:04.0740,-0.54,-0.16,-0.1,0.57
2022-08-11 17:54:04.0770,-0.44,-0.2,-0.09,0.49
2022-08-11 17:54:04.0820,-0.26,-0.12,-0.07,0.29
2022-08-11 17:54:04.0940,-0.13,0.02,-0.22,0.25
2022-08-11 17:54:04.1040,-0.1,0.11,-0.31,0.34
2022-08-11 17:54:04.1120,-0.13,0.1,-0.23,0.28
2022-08-11 17:54:04.1230,-0.16,-0.12,-0.05,0.2
2022-08-11 17:54:04.1320,-0.13,-0.33,0.08,0.36
2022-08-11 17:54:04.1420,0.02,-0.43,0.21,0.47
2022-08-11 17:54:04.1530,0.25,-0.26,0.22,0.42
2022-08-11 17:54:04.1750,0.42,0.09,0.2,0.47
2022-08-11 17:54:04.1770,0.51,0.36,0.23,0.66
2022-08-11 17:54:04.1810,0.55,0.44,0.23,0.74
2022-08-11 17:54:04.1930,0.46,0.22,0.2,0.54
2022-08-11 17:54:04.2020,0.39,0.04,0.2,0.44
2022-08-11 17:54:04.2120,0.38,0.06,0.17,0.42
2022-08-11 17:54:04.2230,0.46,0.07,0.09,0.47
2022-08-11 17:54:04.2310,0.61,0.08,0.08,0.62
2022-08-11 17:54:04.2420,0.77,0.21,0.28,0.84
2022-08-11 17:54:04.2510,0.84,0.28,0.46,0.99
2022-08-11 17:54:04.2740,0.81,0.27,0.53,1.0
2022-08-11 17:54:04.2760,0.7,0.21,0.54,0.9
2022-08-11 17:54:04.2820,0.56,0.07,0.42,0.7
2022-08-11 17:54:04.2920,0.4,-0.03,0.25,0.47
2022-08-11 17:54:04.3020,0.32,-0.02,0.16,0.35
2022-08-11 17:54:04.3110,0.26,0.01,0.1,0.27
2022-08-11 17:54:04.3210,0.19,-0.03,0.1,0.21
2022-08-11 17:54:04.3310,0.13,-0.18,0.16,0.27
2022-08-11 17:54:04.3410,0.09,-0.38,0.26,0.46
2022-08-11 17:54:04.3510,0.09,-0.41,0.42,0.59
2022-08-11 17:54:04.3630,0.1,-0.39,0.4,0.56
2022-08-11 17:54:04.3780,0.08,-0.29,0.28,0.41
2022-08-11 17:54:04.3810,0.04,-0.18,0.16,0.24
2022-08-11 17:54:04.3910,-0.01,-0.05,0.09,0.1
2022-08-11 17:54:04.4010,-0.05,0.09,0.03,0.1
2022-08-11 17:54:04.4120,-0.08,0.26,0.02,0.27
2022-08-11 17:54:04.4200,-0.11,0.45,0.04,0.46
2022-08-11 17:54:04.4320,-0.22,0.57,0.11,0.62
2022-08-11 17:54:04.4400,-0.33,0.51,0.2,0.63
2022-08-11 17:54:04.4500,-0.33,0.31,0.17,0.48
2022-08-11 17:54:04.4620,-0.27,0.11,0.02,0.29
2022-08-11 17:54:04.4770,-0.17,0.09,-0.11,0.22
2022-08-11 17:54:04.4800,-0.06,0.23,-0.06,0.24
2022-08-11 17:54:04.4900,0.02,0.48,0.05,0.48
2022-08-11 17:54:04.5000,0.16,0.67,0.19,0.71
2022-08-11 17:54:04.5100,0.37,0.7,0.31,0.85
2022-08-11 17:54:04.5210,0.55,0.56,0.33,0.85
2022-08-11 17:54:04.5300,0.65,0.21,0.2,0.71
2022-08-11 17:54:04.5410,0.75,-0.18,0.1,0.77
2022-08-11 17:54:04.5490,0.82,-0.34,0.15,0.9
2022-08-11 17:54:04.5590,0.78,-0.2,0.23,0.83
2022-08-11 17:54:04.5750,0.7,0.1,0.35,0.78
2022-08-11 17:54:04.5800,0.59,0.47,0.48,0.89
2022-08-11 17:54:04.5900,0.48,0.86,0.62,1.16
2022-08-11 17:54:04.5990,0.42,1.22,0.58,1.41
2022-08-11 17:54:04.6100,0.49,1.57,0.52,1.72
2022-08-11 17:54:04.6200,0.65,2.39,0.53,2.53
2022-08-11 17:54:04.6290,0.78,3.43,0.46,3.54
2022-08-11 17:54:04.6390,0.69,4.17,0.44,4.24
2022-08-11 17:54:04.6490,0.73,4.42,0.43,4.5
2022-08-11 17:54:04.6600,0.89,4.44,0.54,4.56
2022-08-11 17:54:04.6740,0.61,4.42,0.48,4.48
2022-08-11 17:54:04.6790,0.46,4.29,0.7,4.37
2022-08-11 17:54:04.6890,0.19,3.84,0.77,3.92
2022-08-11 17:54:04.7000,-0.06,3.07,0.96,3.21
2022-08-11 17:54:04.7080,-0.4,2.23,0.96,2.46
2022-08-11 17:54:04.7180,-0.53,1.49,1.04,1.89
2022-08-11 17:54:04.7280,-0.87,0.71,0.73,1.33
2022-08-11 17:54:04.7380,-1.0,-0.15,0.59,1.17
2022-08-11 17:54:04.7480,-1.21,-1.2,0.37,1.74
2022-08-11 17:54:04.7590,-1.09,-2.11,0.45,2.41
2022-08-11 17:54:04.7770,-0.79,-2.72,0.67,2.91
2022-08-11 17:54:04.7800,-1.07,-3.78,-0.05,3.92
2022-08-11 17:54:04.7880,-1.19,-4.92,-0.46,5.08
2022-08-11 17:54:04.7980,-1.09,-6.09,-0.25,6.19
2022-08-11 17:54:04.8080,-0.99,-7.29,-0.14,7.35
2022-08-11 17:54:04.8190,-0.79,-8.44,-0.12,8.47
2022-08-11 17:54:04.8290,-0.44,-8.42,0.04,8.43
2022-08-11 17:54:04.8370,-0.15,-4.96,-0.28,4.97
2022-08-11 17:54:04.8490,-0.18,-1.85,-0.39,1.89
2022-08-11 17:54:04.8570,-0.29,-0.64,-0.43,0.82
2022-08-11 17:54:04.8760,-0.3,-0.3,-0.53,0.67
2022-08-11 17:54:04.8800,-0.05,-0.09,-0.37,0.38
2022-08-11 17:54:04.8870,0.41,0.53,0.17,0.69
2022-08-11 17:54:04.8970,0.66,1.42,0.72,1.72
2022-08-11 17:54:04.9070,0.62,2.15,0.85,2.39
2022-08-11 17:54:04.9190,0.46,2.31,0.59,2.42
2022-08-11 17:54:04.9270,0.29,1.89,0.27,1.93
2022-08-11 17:54:04.9390,0.15,1.24,0.18,1.26
2022-08-11 17:54:04.9470,-0.03,0.51,0.16,0.53
2022-08-11 17:54:04.9580,-0.19,-0.23,0.17,0.34
2022-08-11 17:54:04.9810,-0.24,-0.79,0.26,0.86
2022-08-11 17:54:04.9830,-0.22,-1.16,0.38,1.24
2022-08-11 17:54:04.9860,-0.2,-1.29,0.37,1.35
2022-08-11 17:54:04.9970,-0.15,-1.06,0.27,1.1
2022-08-11 17:54:05.0070,-0.13,-0.59,0.12,0.61
2022-08-11 17:54:05.0170,-0.15,-0.14,-0.03,0.2
2022-08-11 17:54:05.0260,-0.2,0.08,-0.12,0.24
2022-08-11 17:54:05.0360,-0.22,0.06,-0.12,0.25
2022-08-11 17:54:05.0460,-0.2,0.04,0.12,0.23
2022-08-11 17:54:05.0580,-0.27,-0.03,0.27,0.38
2022-08-11 17:54:05.0780,-0.36,-0.11,0.31,0.48
2022-08-11 17:54:05.0800,-0.38,-0.11,0.29,0.49
2022-08-11 17:54:05.0860,-0.33,-0.01,0.32,0.45
2022-08-11 17:54:05.0950,-0.27,0.23,0.29,0.45
2022-08-11 17:54:05.1060,-0.08,0.48,0.23,0.53
2022-08-11 17:54:05.1170,0.18,0.87,0.26,0.92
2022-08-11 17:54:05.1250,0.45,1.37,0.27,1.46
2022-08-11 17:54:05.1350,0.6,1.89,0.24,1.99
2022-08-11 17:54:05.1450,0.75,2.22,0.2,2.35
2022-08-11 17:54:05.1550,0.79,2.24,0.19,2.38
2022-08-11 17:54:05.1650,0.82,1.84,0.14,2.01
2022-08-11 17:54:05.1810,0.71,0.36,0.06,0.79
2022-08-11 17:54:05.1850,0.62,-0.83,0.34,1.09
2022-08-11 17:54:05.1960,0.72,-1.15,0.43,1.42
2022-08-11 17:54:05.2060,0.99,-0.87,0.49,1.4
2022-08-11 17:54:05.2150,0.88,-0.21,0.34,0.96
2022-08-11 17:54:05.2260,0.73,0.12,0.22,0.77
2022-08-11 17:54:05.2360,0.67,0.15,0.36,0.77
2022-08-11 17:54:05.2440,0.69,0.06,0.46,0.83
2022-08-11 17:54:05.2540,0.68,-0.04,0.39,0.78
2022-08-11 17:54:05.2660,0.58,-0.02,0.38,0.69
2022-08-11 17:54:05.2800,0.61,0.24,0.41,0.77
2022-08-11 17:54:05.2840,0.6,0.46,0.31,0.81
2022-08-11 17:54:05.2950,0.52,0.52,0.23,0.77
2022-08-11 17:54:05.3060,0.43,0.49,0.33,0.73
2022-08-11 17:54:05.3140,0.4,0.58,0.46,0.84
2022-08-11 17:54:05.3250,0.38,0.92,0.57,1.14
2022-08-11 17:54:05.3350,0.43,1.66,0.74,1.86
2022-08-11 17:54:05.3440,0.54,2.76,0.8,2.92
2022-08-11 17:54:05.3550,0.6,3.79,0.63,3.88
2022-08-11 17:54:05.3640,0.53,4.46,0.41,4.51
2022-08-11 17:54:05.3820,0.3,4.3,0.02,4.31
2022-08-11 17:54:05.3850,0.19,3.82,-0.27,3.83
2022-08-11 17:54:05.3940,-0.02,3.06,-0.29,3.07
2022-08-11 17:54:05.4040,-0.39,0.99,0.0,1.06
2022-08-11 17:54:05.4140,-0.5,-1.73,0.13,1.8
2022-08-11 17:54:05.4250,-0.43,-4.41,0.12,4.43
2022-08-11 17:54:05.4330,-0.24,-6.72,0.15,6.72
2022-08-11 17:54:05.4430,-0.3,-8.46,0.01,8.46
2022-08-11 17:54:05.4540,-0.25,-8.19,-0.14,8.19
2022-08-11 17:54:05.4630,-0.07,-4.2,-0.27,4.2
2022-08-11 17:54:05.4780,-0.38,-1.02,-0.07,1.09
2022-08-11 17:54:05.4820,-0.94,0.24,0.17,0.98
2022-08-11 17:54:05.4930,-1.18,0.46,0.27,1.29
2022-08-11 17:54:05.5030,-1.0,0.48,0.41,1.18
2022-08-11 17:54:05.5140,-0.67,0.59,0.65,1.1
2022-08-11 17:54:05.5220,-0.47,0.65,0.79,1.12
2022-08-11 17:54:05.5330,-0.4,0.49,0.58,0.85
2022-08-11 17:54:05.5420,-0.19,0.24,0.31,0.43
2022-08-11 17:54:05.5520,0.02,-0.18,0.21,0.27
2022-08-11 17:54:05.5620,0.26,-0.62,0.06,0.67
2022-08-11 17:54:05.5820,0.48,-0.83,0.04,0.95
2022-08-11 17:54:05.5850,0.55,-0.88,0.04,1.03
2022-08-11 17:54:05.5920,0.59,-0.68,0.0,0.9
2022-08-11 17:54:05.6030,0.95,-0.26,0.09,0.98
2022-08-11 17:54:05.6120,1.04,0.39,0.36,1.16
2022-08-11 17:54:05.6220,0.75,1.13,0.39,1.41
2022-08-11 17:54:05.6330,0.43,1.74,0.18,1.8
2022-08-11 17:54:05.6430,0.38,2.09,0.13,2.12
2022-08-11 17:54:05.6520,0.61,2.13,0.32,2.23
2022-08-11 17:54:05.6620,0.69,1.95,0.42,2.11
2022-08-11 17:54:05.6830,0.51,1.54,0.34,1.65
2022-08-11 17:54:05.6850,0.21,0.59,0.18,0.65
2022-08-11 17:54:05.6920,-0.07,-0.4,0.01,0.4
2022-08-11 17:54:05.7020,-0.24,-0.59,-0.01,0.63
2022-08-11 17:54:05.7110,-0.33,-0.21,0.04,0.39
2022-08-11 17:54:05.7230,-0.4,0.17,0.18,0.47
2022-08-11 17:54:05.7310,-0.58,0.27,0.16,0.65
2022-08-11 17:54:05.7410,-0.71,0.07,0.06,0.71
2022-08-11 17:54:05.7510,-0.58,-0.11,0.0,0.59
2022-08-11 17:54:05.7610,-0.27,-0.04,0.07,0.28
2022-08-11 17:54:05.7840,-0.03,-0.1,-0.03,0.1
2022-08-11 17:54:05.7860,0.05,-0.11,-0.12,0.17
2022-08-11 17:54:05.7910,0.26,0.08,-0.06,0.27
2022-08-11 17:54:05.8010,0.51,0.23,-0.13,0.57
2022-08-11 17:54:05.8120,0.41,0.14,-0.16,0.46
2022-08-11 17:54:05.8200,0.16,0.11,-0.14,0.23
2022-08-11 17:54:05.8300,0.08,0.3,-0.06,0.31
2022-08-11 17:54:05.8420,0.06,0.42,0.12,0.44
2022-08-11 17:54:05.8500,0.01,0.43,0.16,0.45
2022-08-11 17:54:05.8600,-0.12,0.28,0.12,0.32
2022-08-11 17:54:05.8830,-0.29,0.09,0.01,0.3
2022-08-11 17:54:05.8850,-0.29,0.16,0.04,0.33
2022-08-11 17:54:05.8900,-0.2,0.29,0.02,0.35
2022-08-11 17:54:05.9000,-0.18,0.33,-0.03,0.37
2022-08-11 17:54:05.9100,-0.11,0.24,-0.01,0.26
2022-08-11 17:54:05.9210,-0.04,0.03,-0.03,0.05
2022-08-11 17:54:05.9310,0.02,-0.1,-0.01,0.1
2022-08-11 17:54:05.9410,0.18,-0.09,0.02,0.2
2022-08-11 17:54:05.9500,0.32,-0.05,0.1,0.33
2022-08-11 17:54:05.9590,0.45,0.0,0.3,0.54
2022-08-11 17:54:05.9710,0.54,0.1,0.37,0.66
2022-08-11 17:54:05.9850,0.54,0.18,0.32,0.65
2022-08-11 17:54:05.9900,0.59,0.12,0.37,0.7
2022-08-11 17:54:06.0000,0.55,0.03,0.31,0.63
2022-08-11 17:54:06.0100,0.48,0.0,0.18,0.51
2022-08-11 17:54:06.0200,0.49,-0.04,0.12,0.5
2022-08-11 17:54:06.0300,0.55,-0.12,0.22,0.6
2022-08-11 17:54:06.0390,0.49,-0.2,0.28,0.59
2022-08-11 17:54:06.0490,0.44,-0.2,0.23,0.53
2022-08-11 17:54:06.0610,0.48,-0.06,0.32,0.57
2022-08-11 17:54:06.0700,0.44,0.15,0.3,0.55
2022-08-11 17:54:06.0850,0.42,0.28,0.25,0.56
2022-08-11 17:54:06.0890,0.35,0.26,0.24,0.49
2022-08-11 17:54:06.0980,0.19,0.15,0.2,0.31
2022-08-11 17:54:06.1090,0.05,0.05,0.21,0.22
2022-08-11 17:54:06.1190,-0.12,0.0,0.16,0.2
2022-08-11 17:54:06.1280,-0.17,0.0,0.19,0.25
2022-08-11 17:54:06.1380,-0.12,0.08,0.27,0.3
2022-08-11 17:54:06.1480,-0.08,0.19,0.29,0.35
2022-08-11 17:54:06.1580,0.0,0.19,0.25,0.31
2022-08-11 17:54:06.1680,0.08,0.13,0.18,0.23
2022-08-11 17:54:06.1840,0.13,0.03,0.13,0.18
2022-08-11 17:54:06.1880,0.18,-0.03,0.12,0.21
2022-08-11 17:54:06.1980,0.29,-0.05,0.18,0.34
2022-08-11 17:54:06.2090,0.37,-0.03,0.18,0.41
2022-08-11 17:54:06.2190,0.34,0.05,0.17,0.38
2022-08-11 17:54:06.2270,0.29,0.1,0.22,0.37
2022-08-11 17:54:06.2380,0.17,0.1,0.22,0.29
2022-08-11 17:54:06.2470,0.01,0.14,0.21,0.25
2022-08-11 17:54:06.2570,-0.07,0.2,0.25,0.32
2022-08-11 17:54:06.2690,-0.11,0.23,0.33,0.41
2022-08-11 17:54:06.2850,-0.16,0.19,0.27,0.36
2022-08-11 17:54:06.2880,-0.16,0.08,0.15,0.23
2022-08-11 17:54:06.2970,-0.07,-0.02,0.09,0.11
2022-08-11 17:54:06.3070,0.04,-0.06,0.05,0.08
2022-08-11 17:54:06.3180,0.14,-0.03,0.06,0.15
2022-08-11 17:54:06.3280,0.18,0.04,0.1,0.2
2022-08-11 17:54:06.3370,0.17,0.11,0.14,0.24
2022-08-11 17:54:06.3460,0.13,0.14,0.2,0.27
2022-08-11 17:54:06.3580,0.06,0.13,0.21,0.25
2022-08-11 17:54:06.3660,0.02,0.13,0.27,0.3
2022-08-11 17:54:06.3850,0.05,0.12,0.31,0.33
2022-08-11 17:54:06.3880,0.04,0.1,0.31,0.32
2022-08-11 17:54:06.3960,0.05,0.1,0.25,0.27
2022-08-11 17:54:06.4070,0.12,0.11,0.24,0.28
2022-08-11 17:54:06.4160,0.21,0.14,0.23,0.34
2022-08-11 17:54:06.4270,0.35,0.14,0.27,0.46
2022-08-11 17:54:06.4360,0.41,0.11,0.31,0.52
2022-08-11 17:54:06.4460,0.39,0.1,0.24,0.46
2022-08-11 17:54:06.4580,0.34,0.05,0.15,0.37
2022-08-11 17:54:06.4660,0.24,0.05,0.13,0.27
2022-08-11 17:54:06.4850,0.12,0.03,0.16,0.2
2022-08-11 17:54:06.4900,0.08,0.01,0.21,0.22
2022-08-11 17:54:06.4950,0.11,0.04,0.27,0.29
2022-08-11 17:54:06.5060,0.15,0.09,0.29,0.33
2022-08-11 17:54:06.5170,0.14,0.05,0.23,0.27
2022-08-11 17:54:06.5250,0.11,0.05,0.19,0.22
2022-08-11 17:54:06.5350,0.02,0.02,0.05,0.05
2022-08-11 17:54:06.5470,-0.08,-0.24,-0.03,0.25
2022-08-11 17:54:06.5550,-0.09,-0.35,0.11,0.37
2022-08-11 17:54:06.5650,0.02,-0.15,0.15,0.21
2022-08-11 17:54:06.5880,0.07,0.05,0.06,0.1
2022-08-11 17:54:06.5920,0.1,0.18,0.05,0.21
2022-08-11 17:54:06.5940,0.11,0.21,0.06,0.24
2022-08-11 17:54:06.6050,0.06,0.19,0.06,0.2
2022-08-11 17:54:06.6160,0.01,0.14,0.07,0.15
2022-08-11 17:54:06.6240,0.01,0.12,0.09,0.15
2022-08-11 17:54:06.6360,-0.05,0.16,0.08,0.18
2022-08-11 17:54:06.6440,-0.09,0.14,0.01,0.16
2022-08-11 17:54:06.6540,-0.03,0.1,0.02,0.1
2022-08-11 17:54:06.6650,0.05,0.16,0.05,0.17
2022-08-11 17:54:06.6850,0.14,0.35,0.12,0.39
2022-08-11 17:54:06.6870,0.26,0.41,0.26,0.55
2022-08-11 17:54:06.6940,0.22,0.29,0.26,0.44
2022-08-11 17:54:06.7050,0.18,0.12,0.21,0.3
2022-08-11 17:54:06.7140,0.14,-0.01,0.17,0.22
2022-08-11 17:54:06.7250,0.03,-0.08,0.12,0.14
2022-08-11 17:54:06.7340,-0.06,-0.11,0.1,0.16
2022-08-11 17:54:06.7440,-0.09,-0.1,0.12,0.18
2022-08-11 17:54:06.7550,-0.09,-0.03,0.11,0.14
2022-08-11 17:54:06.7640,-0.03,0.04,0.15,0.15
2022-08-11 17:54:06.7740,0.06,0.07,0.2,0.22
2022-08-11 17:54:06.7920,0.14,0.05,0.14,0.2
2022-08-11 17:54:06.7950,0.17,-0.09,0.08,0.2
2022-08-11 17:54:06.8040,0.21,-0.11,0.09,0.25
2022-08-11 17:54:06.8140,0.26,-0.03,0.07,0.27
2022-08-11 17:54:06.8230,0.25,0.07,0.06,0.26
2022-08-11 17:54:06.8330,0.27,0.14,0.1,0.32
2022-08-11 17:54:06.8430,0.31,0.12,0.14,0.36
2022-08-11 17:54:06.8550,0.33,0.05,0.23,0.4
2022-08-11 17:54:06.8630,0.39,0.01,0.26,0.46
2022-08-11 17:54:06.8750,0.42,0.05,0.17,0.45
2022-08-11 17:54:06.8890,0.39,0.09,0.17,0.43
2022-08-11 17:54:06.8930,0.42,0.2,0.31,0.55
2022-08-11 17:54:06.9030,0.4,0.37,0.39,0.67
2022-08-11 17:54:06.9140,0.22,0.49,0.27,0.6
2022-08-11 17:54:06.9240,0.01,0.53,0.21,0.57
2022-08-11 17:54:06.9320,-0.17,0.38,0.23,0.47
2022-08-11 17:54:06.9420,-0.3,0.11,0.26,0.41
2022-08-11 17:54:06.9540,-0.37,-0.18,0.22,0.46
2022-08-11 17:54:06.9620,-0.4,-0.45,0.07,0.6
2022-08-11 17:54:06.9720,-0.31,-0.52,-0.1,0.61
2022-08-11 17:54:06.9870,-0.01,-0.42,0.0,0.42
2022-08-11 17:54:06.9920,0.3,-0.16,0.22,0.4
2022-08-11 17:54:07.0030,0.42,0.16,0.25,0.51
2022-08-11 17:54:07.0130,0.38,0.23,0.07,0.44
2022-08-11 17:54:07.0220,0.29,0.12,-0.07,0.32
2022-08-11 17:54:07.0330,0.18,-0.04,-0.06,0.19
2022-08-11 17:54:07.0440,0.06,-0.11,-0.02,0.12
2022-08-11 17:54:07.0530,0.02,-0.16,0.11,0.19
2022-08-11 17:54:07.0610,0.01,-0.15,0.28,0.31
2022-08-11 17:54:07.0740,0.04,-0.1,0.36,0.37
2022-08-11 17:54:07.0840,0.12,-0.06,0.4,0.42
2022-08-11 17:54:07.0910,0.11,-0.19,0.38,0.43
2022-08-11 17:54:07.1010,0.08,-0.67,0.28,0.73
2022-08-11 17:54:07.1110,0.24,-0.97,0.1,1.0
2022-08-11 17:54:07.1220,0.36,-0.64,-0.02,0.73
2022-08-11 17:54:07.1320,0.4,-0.2,0.01,0.44
2022-08-11 17:54:07.1420,0.46,0.21,0.0,0.5
2022-08-11 17:54:07.1520,0.56,0.51,0.0,0.75
2022-08-11 17:54:07.1630,0.59,0.69,0.05,0.9
2022-08-11 17:54:07.1720,0.52,0.77,0.06,0.93
2022-08-11 17:54:07.1890,0.38,0.74,0.03,0.83
2022-08-11 17:54:07.1910,0.23,0.58,0.03,0.62
2022-08-11 17:54:07.2020,0.03,0.37,0.13,0.39
2022-08-11 17:54:07.2100,-0.17,0.23,0.24,0.37
2022-08-11 17:54:07.2210,-0.31,0.14,0.28,0.44
2022-08-11 17:54:07.2300,-0.39,0.16,0.24,0.48
2022-08-11 17:54:07.2400,-0.39,0.22,0.17,0.47
2022-08-11 17:54:07.2520,-0.32,0.29,0.07,0.43
2022-08-11 17:54:07.2600,-0.24,0.31,-0.07,0.39
2022-08-11 17:54:07.2720,-0.25,0.18,-0.18,0.35
2022-08-11 17:54:07.2880,-0.21,0.08,-0.2,0.3
2022-08-11 17:54:07.2910,-0.25,0.06,-0.18,0.31
2022-08-11 17:54:07.3000,-0.32,0.17,-0.12,0.38
2022-08-11 17:54:07.3100,-0.27,0.42,0.11,0.51
2022-08-11 17:54:07.3190,-0.19,0.57,0.23,0.64
2022-08-11 17:54:07.3310,-0.16,0.5,0.2,0.56
2022-08-11 17:54:07.3390,-0.23,0.26,0.2,0.4
2022-08-11 17:54:07.3510,-0.31,-0.07,0.02,0.31
2022-08-11 17:54:07.3610,-0.34,-0.42,-0.12,0.55
2022-08-11 17:54:07.3710,-0.26,-0.63,-0.08,0.68
2022-08-11 17:54:07.3940,-0.17,-0.55,-0.08,0.58
2022-08-11 17:54:07.3960,0.08,-0.12,0.12,0.18
2022-08-11 17:54:07.3990,0.29,0.27,0.17,0.43
2022-08-11 17:54:07.4090,0.35,0.5,0.1,0.61
2022-08-11 17:54:07.4190,0.44,0.47,0.17,0.66
2022-08-11 17:54:07.4300,0.42,0.25,0.19,0.52
2022-08-11 17:54:07.4390,0.3,0.15,0.22,0.4
2022-08-11 17:54:07.4500,0.4,0.14,0.34,0.54
2022-08-11 17:54:07.4590,0.28,0.11,0.3,0.42
2022-08-11 17:54:07.4690,0.36,0.07,0.43,0.56
2022-08-11 17:54:07.4930,0.44,-0.01,0.55,0.7
2022-08-11 17:54:07.4950,0.4,-0.11,0.43,0.59
2022-08-11 17:54:07.4980,0.32,-0.09,0.39,0.51
2022-08-11 17:54:07.5090,0.44,-0.05,0.54,0.69
2022-08-11 17:54:07.5190,0.37,-0.05,0.38,0.53
2022-08-11 17:54:07.5280,0.06,-0.04,-0.03,0.07
2022-08-11 17:54:07.5400,0.0,-0.14,0.05,0.14
2022-08-11 17:54:07.5490,0.07,-0.19,0.34,0.39
2022-08-11 17:54:07.5580,-0.06,-0.11,0.27,0.29
2022-08-11 17:54:07.5680,-0.19,0.02,0.14,0.23
2022-08-11 17:54:07.5780,-0.16,0.1,0.1,0.21
2022-08-11 17:54:07.5940,-0.11,0.23,0.12,0.28
2022-08-11 17:54:07.5970,-0.09,0.43,0.16,0.46
2022-08-11 17:54:07.6070,-0.04,0.5,0.19,0.53
2022-08-11 17:54:07.6180,-0.01,0.41,0.19,0.45
2022-08-11 17:54:07.6290,-0.04,0.23,0.07,0.24
2022-08-11 17:54:07.6390,0.02,0.05,0.01,0.05
2022-08-11 17:54:07.6470,0.13,-0.03,0.04,0.13
2022-08-11 17:54:07.6580,0.22,-0.07,0.09,0.24
2022-08-11 17:54:07.6670,0.29,-0.06,0.1,0.31
2022-08-11 17:54:07.6770,0.32,-0.04,0.11,0.34
2022-08-11 17:54:07.6920,0.24,-0.02,0.11,0.26
2022-08-11 17:54:07.6970,0.1,0.0,0.11,0.14
2022-08-11 17:54:07.7070,-0.01,0.04,0.09,0.09
2022-08-11 17:54:07.7170,-0.03,0.12,0.13,0.17
2022-08-11 17:54:07.7270,-0.07,0.23,0.16,0.28
2022-08-11 17:54:07.7380,-0.13,0.28,0.12,0.33
2022-08-11 17:54:07.7460,-0.13,0.21,0.09,0.26
2022-08-11 17:54:07.7570,-0.09,0.09,0.11,0.16
2022-08-11 17:54:07.7660,-0.02,0.0,0.14,0.14
2022-08-11 17:54:07.7760,0.08,-0.06,0.18,0.2
2022-08-11 17:54:07.7900,0.2,-0.09,0.2,0.29
2022-08-11 17:54:07.7960,0.29,-0.12,0.24,0.39
2022-08-11 17:54:07.8060,0.32,-0.08,0.24,0.4
2022-08-11 17:54:07.8160,0.3,0.0,0.21,0.36
2022-08-11 17:54:07.8270,0.27,0.09,0.18,0.33
2022-08-11 17:54:07.8360,0.22,0.15,0.13,0.29
2022-08-11 17:54:07.8470,0.16,0.2,0.08,0.26
2022-08-11 17:54:07.8560,0.1,0.2,0.04,0.22
2022-08-11 17:54:07.8660,0.03,0.15,0.04,0.15
2022-08-11 17:54:07.8760,-0.01,0.05,-0.01,0.05
2022-08-11 17:54:07.8900,0.0,-0.07,-0.04,0.08
2022-08-11 17:54:07.8950,0.04,-0.13,-0.04,0.14
2022-08-11 17:54:07.9060,0.07,-0.16,-0.07,0.18
2022-08-11 17:54:07.9150,0.1,-0.12,-0.08,0.17
2022-08-11 17:54:07.9260,0.14,-0.04,-0.06,0.15
2022-08-11 17:54:07.9350,0.16,0.09,0.01,0.18
2022-08-11 17:54:07.9450,0.18,0.27,0.07,0.33
2022-08-11 17:54:07.9550,0.13,0.38,0.11,0.41
2022-08-11 17:54:07.9650,0.12,0.4,0.19,0.45
2022-08-11 17:54:07.9750,0.2,0.37,0.31,0.52
2022-08-11 17:54:07.9970,0.24,0.26,0.29,0.45
2022-08-11 17:54:07.9990,0.25,0.06,0.18,0.31
2022-08-11 17:54:08.0050,0.27,-0.14,0.11,0.32
2022-08-11 17:54:08.0160,0.3,-0.25,0.13,0.41
2022-08-11 17:54:08.0260,0.33,-0.23,0.12,0.41
2022-08-11 17:54:08.0350,0.29,-0.16,0.09,0.34
2022-08-11 17:54:08.0450,0.2,-0.08,0.06,0.22
2022-08-11 17:54:08.0540,0.07,-0.06,0.04,0.1
2022-08-11 17:54:08.0640,-0.04,-0.02,0.05,0.06
2022-08-11 17:54:08.0750,-0.13,0.1,0.09,0.18
2022-08-11 17:54:08.0940,-0.22,0.22,0.14,0.34
2022-08-11 17:54:08.0970,-0.25,0.31,0.19,0.44
2022-08-11 17:54:08.1040,-0.23,0.34,0.23,0.47
2022-08-11 17:54:08.1150,-0.14,0.33,0.28,0.45
2022-08-11 17:54:08.1250,-0.06,0.27,0.31,0.41
2022-08-11 17:54:08.1340,0.01,0.14,0.28,0.31
2022-08-11 17:54:08.1460,0.08,0.02,0.22,0.23
2022-08-11 17:54:08.1540,0.13,-0.09,0.17,0.23
2022-08-11 17:54:08.1630,0.17,-0.12,0.17,0.26
2022-08-11 17:54:08.1760,0.22,-0.09,0.16,0.28
2022-08-11 17:54:08.1990,0.27,-0.03,0.16,0.31
2022-08-11 17:54:08.2020,0.29,0.02,0.15,0.32
2022-08-11 17:54:08.2050,0.29,0.05,0.16,0.33
2022-08-11 17:54:08.2130,0.28,0.08,0.19,0.34
2022-08-11 17:54:08.2230,0.24,0.06,0.19,0.31
2022-08-11 17:54:08.2350,0.15,0.03,0.12,0.19
2022-08-11 17:54:08.2430,0.08,0.01,0.06,0.1
2022-08-11 17:54:08.2530,-0.01,0.06,0.01,0.06
2022-08-11 17:54:08.2640,-0.09,0.14,0.02,0.16
2022-08-11 17:54:08.2730,-0.14,0.18,0.02,0.22
2022-08-11 17:54:08.2950,-0.16,0.22,-0.01,0.27
2022-08-11 17:54:08.2970,-0.16,0.21,0.01,0.26
2022-08-11 17:54:08.3030,-0.12,0.18,0.08,0.23
2022-08-11 17:54:08.3130,-0.07,0.14,0.13,0.2
2022-08-11 17:54:08.3240,0.0,0.07,0.16,0.17
2022-08-11 17:54:08.3330,0.03,0.02,0.16,0.16
2022-08-11 17:54:08.3430,0.07,-0.06,0.15,0.17
2022-08-11 17:54:08.3540,0.08,-0.09,0.1,0.15
2022-08-11 17:54:08.3620,0.06,-0.02,0.04,0.07
2022-08-11 17:54:08.3740,0.0,0.05,-0.01,0.05
2022-08-11 17:54:08.3820,-0.06,0.08,-0.02,0.1
2022-08-11 17:54:08.3960,-0.07,0.06,0.0,0.09
2022-08-11 17:54:08.4030,-0.06,0.04,0.03,0.07
2022-08-11 17:54:08.4120,-0.06,0.03,0.06,0.09
2022-08-11 17:54:08.4230,-0.02,0.06,0.07,0.09
2022-08-11 17:54:08.4310,0.0,0.07,0.07,0.09
2022-08-11 17:54:08.4430,0.04,0.1,0.07,0.12
2022-08-11 17:54:08.4520,0.05,0.15,0.09,0.18
2022-08-11 17:54:08.4610,0.05,0.15,0.11,0.19
2022-08-11 17:54:08.4720,0.08,0.12,0.14,0.2
2022-08-11 17:54:08.4810,0.14,0.06,0.17,0.22
2022-08-11 17:54:08.4980,0.22,0.03,0.16,0.27
2022-08-11 17:54:08.5010,0.29,0.0,0.14,0.32
2022-08-11 17:54:08.5120,0.36,-0.04,0.13,0.38
2022-08-11 17:54:08.5220,0.41,-0.06,0.14,0.43
2022-08-11 17:54:08.5320,0.4,-0.03,0.17,0.43
2022-08-11 17:54:08.5430,0.33,0.04,0.2,0.38
2022-08-11 17:54:08.5510,0.25,0.08,0.21,0.33
2022-08-11 17:54:08.5610,0.18,0.14,0.19,0.29
2022-08-11 17:54:08.5710,0.09,0.18,0.15,0.25
2022-08-11 17:54:08.5810,0.03,0.18,0.14,0.23
2022-08-11 17:54:08.5970,0.01,0.16,0.15,0.21
2022-08-11 17:54:08.6010,0.04,0.07,0.15,0.17
2022-08-11 17:54:08.6110,0.11,-0.01,0.15,0.18
2022-08-11 17:54:08.6200,0.16,-0.08,0.14,0.22
2022-08-11 17:54:08.6300,0.19,-0.1,0.13,0.25
2022-08-11 17:54:08.6410,0.21,-0.08,0.11,0.25
2022-08-11 17:54:08.6500,0.18,-0.03,0.08,0.19
2022-08-11 17:54:08.6600,0.13,0.09,0.08,0.17
2022-08-11 17:54:08.6700,0.12,0.16,0.09,0.21
2022-08-11 17:54:08.6800,0.11,0.17,0.07,0.21
2022-08-11 17:54:08.6950,0.09,0.16,0.04,0.18
2022-08-11 17:54:08.6990,0.09,0.14,0.02,0.16
2022-08-11 17:54:08.7090,0.09,0.14,0.0,0.16
2022-08-11 17:54:08.7200,0.07,0.13,0.02,0.14
2022-08-11 17:54:08.7290,0.06,0.13,0.07,0.15
2022-08-11 17:54:08.7400,0.08,0.09,0.1,0.15
2022-08-11 17:54:08.7510,0.09,0.06,0.09,0.14
2022-08-11 17:54:08.7590,0.08,0.02,0.03,0.08
2022-08-11 17:54:08.7690,0.07,-0.01,-0.04,0.08
2022-08-11 17:54:08.7790,0.07,-0.03,-0.06,0.09
2022-08-11 17:54:08.8000,0.09,-0.04,0.04,0.1
2022-08-11 17:54:08.8020,0.12,0.01,0.14,0.18
2022-08-11 17:54:08.8100,0.16,0.1,0.17,0.25
2022-08-11 17:54:08.8190,0.2,0.22,0.22,0.36
2022-08-11 17:54:08.8300,0.18,0.27,0.24,0.4
2022-08-11 17:54:08.8400,0.11,0.19,0.25,0.33
2022-08-11 17:54:08.8490,0.11,0.1,0.32,0.35
2022-08-11 17:54:08.8600,0.06,0.05,0.34,0.34
2022-08-11 17:54:08.8680,0.07,0.05,0.34,0.35
2022-08-11 17:54:08.8790,0.11,0.04,0.35,0.36
2022-08-11 17:54:08.9000,0.09,-0.08,0.27,0.29
2022-08-11 17:54:08.9020,0.08,-0.22,0.18,0.29
2022-08-11 17:54:08.9080,0.06,-0.27,0.1,0.29
2022-08-11 17:54:08.9200,0.05,-0.17,0.07,0.19
2022-08-11 17:54:08.9280,0.02,0.0,0.07,0.07
2022-08-11 17:54:08.9380,-0.07,0.15,0.07,0.17
2022-08-11 17:54:08.9500,-0.14,0.25,0.08,0.29
2022-08-11 17:54:08.9580,-0.19,0.3,0.08,0.36
2022-08-11 17:54:08.9680,-0.23,0.29,0.08,0.37
2022-08-11 17:54:08.9800,-0.24,0.23,0.06,0.33
2022-08-11 17:54:09.0030,-0.19,0.13,-0.01,0.23
2022-08-11 17:54:09.0060,-0.07,0.06,-0.03,0.09
2022-08-11 17:54:09.0100,0.02,0.05,-0.02,0.05
2022-08-11 17:54:09.0180,0.06,0.06,0.01,0.08
2022-08-11 17:54:09.0270,0.02,0.12,-0.07,0.14
2022-08-11 17:54:09.0390,-0.06,0.14,-0.19,0.24
2022-08-11 17:54:09.0470,-0.08,0.14,-0.13,0.2
2022-08-11 17:54:09.0590,-0.15,0.1,-0.1,0.2
2022-08-11 17:54:09.0690,-0.22,0.07,-0.08,0.24
2022-08-11 17:54:09.0770,-0.17,0.22,0.05,0.28
2022-08-11 17:54:09.1000,-0.15,0.22,0.07,0.27
2022-08-11 17:54:09.1020,-0.13,0.11,0.06,0.18
2022-08-11 17:54:09.1060,0.01,-0.01,0.2,0.2
2022-08-11 17:54:09.1180,0.13,-0.05,0.27,0.3
2022-08-11 17:54:09.1270,0.21,0.0,0.25,0.32
2022-08-11 17:54:09.1380,0.24,0.01,0.15,0.28
2022-08-11 17:54:09.1460,0.24,-0.03,0.11,0.26
2022-08-11 17:54:09.1580,0.31,-0.02,0.15,0.34
2022-08-11 17:54:09.1680,0.37,0.04,0.17,0.4
2022-08-11 17:54:09.1780,0.38,0.13,0.19,0.44
2022-08-11 17:54:09.1860,0.37,0.14,0.17,0.43
2022-08-11 17:54:09.2020,0.3,0.08,0.16,0.34
2022-08-11 17:54:09.2060,0.2,0.03,0.15,0.25
2022-08-11 17:54:09.2160,0.11,0.0,0.14,0.17
2022-08-11 17:54:09.2270,0.03,0.0,0.13,0.13
2022-08-11 17:54:09.2370,0.01,0.03,0.11,0.11
2022-08-11 17:54:09.2470,0.04,0.1,0.14,0.17
2022-08-11 17:54:09.2560,0.08,0.14,0.14,0.21
2022-08-11 17:54:09.2660,0.13,0.13,0.08,0.2
2022-08-11 17:54:09.2760,0.18,0.08,0.05,0.2
2022-08-11 17:54:09.2870,0.23,0.04,0.01,0.23
2022-08-11 17:54:09.3000,0.29,0.01,0.0,0.29
2022-08-11 17:54:09.3050,0.33,-0.02,0.01,0.33
2022-08-11 17:54:09.3160,0.34,-0.01,0.03,0.34
2022-08-11 17:54:09.3260,0.3,0.03,0.04,0.3
2022-08-11 17:54:09.3360,0.19,0.08,0.03,0.2
2022-08-11 17:54:09.3450,0.09,0.12,0.04,0.15
2022-08-11 17:54:09.3550,-0.02,0.14,0.04,0.14
2022-08-11 17:54:09.3650,-0.1,0.11,0.04,0.15
2022-08-11 17:54:09.3770,-0.16,0.08,0.05,0.18
2022-08-11 17:54:09.3860,-0.17,0.08,0.09,0.2
2022-08-11 17:54:09.4010,-0.14,0.1,0.17,0.24
2022-08-11 17:54:09.4040,-0.1,0.15,0.22,0.28
2022-08-11 17:54:09.4150,-0.12,0.16,0.18,0.26
2022-08-11 17:54:09.4260,-0.14,0.15,0.21,0.29
2022-08-11 17:54:09.4350,-0.13,0.11,0.23,0.28
2022-08-11 17:54:09.4450,-0.16,0.0,0.21,0.26
2022-08-11 17:54:09.4540,-0.16,-0.12,0.17,0.26
2022-08-11 17:54:09.4640,0.0,-0.15,0.22,0.26
2022-08-11 17:54:09.4740,0.18,-0.08,0.22,0.29
2022-08-11 17:54:09.4840,0.32,0.01,0.17,0.36
2022-08-11 17:54:09.4990,0.4,0.08,0.13,0.42
2022-08-11 17:54:09.5040,0.38,0.05,0.04,0.38
2022-08-11 17:54:09.5150,0.25,-0.03,-0.07,0.26
2022-08-11 17:54:09.5250,0.12,0.0,-0.06,0.13
2022-08-11 17:54:09.5350,0.05,0.04,0.0,0.06
2022-08-11 17:54:09.5450,-0.05,0.08,0.01,0.09
2022-08-11 17:54:09.5540,-0.04,0.11,0.07,0.13
2022-08-11 17:54:09.5640,0.05,0.17,0.17,0.24
2022-08-11 17:54:09.5750,0.05,0.21,0.21,0.3
2022-08-11 17:54:09.5840,0.03,0.14,0.18,0.23
2022-08-11 17:54:09.6050,0.02,0.03,0.15,0.15
2022-08-11 17:54:09.6070,0.04,0.0,0.16,0.16
2022-08-11 17:54:09.6140,0.06,0.02,0.17,0.18
2022-08-11 17:54:09.6240,0.07,0.04,0.14,0.16
2022-08-11 17:54:09.6340,0.09,0.09,0.14,0.18
2022-08-11 17:54:09.6430,0.12,0.09,0.15,0.21
2022-08-11 17:54:09.6550,0.17,0.08,0.13,0.22
2022-08-11 17:54:09.6630,0.21,0.06,0.13,0.25
2022-08-11 17:54:09.6740,0.21,0.0,0.06,0.21
2022-08-11 17:54:09.6830,0.15,-0.05,-0.03,0.16
2022-08-11 17:54:09.7020,0.11,-0.05,-0.02,0.12
2022-08-11 17:54:09.7060,0.05,0.03,0.02,0.06
2022-08-11 17:54:09.7120,0.01,0.08,0.01,0.08
2022-08-11 17:54:09.7230,-0.04,0.09,-0.02,0.1
2022-08-11 17:54:09.7340,-0.1,0.06,-0.04,0.12
2022-08-11 17:54:09.7420,-0.13,0.05,-0.06,0.15
2022-08-11 17:54:09.7530,-0.12,0.05,-0.04,0.13
2022-08-11 17:54:09.7630,-0.04,0.1,-0.01,0.1
2022-08-11 17:54:09.7730,0.06,0.21,0.04,0.22
2022-08-11 17:54:09.7820,0.15,0.28,0.06,0.32
2022-08-11 17:54:09.8050,0.19,0.26,-0.04,0.32
2022-08-11 17:54:09.8070,0.19,0.22,-0.03,0.29
2022-08-11 17:54:09.8110,0.18,0.17,0.02,0.24
2022-08-11 17:54:09.8220,0.17,0.13,0.01,0.21
2022-08-11 17:54:09.8320,0.18,0.08,0.02,0.19
2022-08-11 17:54:09.8430,0.21,0.06,0.02,0.21
2022-08-11 17:54:09.8530,0.22,0.08,0.05,0.23
2022-08-11 17:54:09.8610,0.22,0.06,0.09,0.24
2022-08-11 17:54:09.8710,0.2,-0.01,0.13,0.23
2022-08-11 17:54:09.8820,0.17,-0.07,0.16,0.24
2022-08-11 17:54:09.9030,0.14,-0.09,0.18,0.24
2022-08-11 17:54:09.9050,0.07,-0.1,0.18,0.21
2022-08-11 17:54:09.9120,0.0,-0.07,0.19,0.2
2022-08-11 17:54:09.9220,-0.04,-0.06,0.19,0.2
2022-08-11 17:54:09.9320,-0.09,-0.06,0.18,0.21
2022-08-11 17:54:09.9410,-0.12,-0.05,0.16,0.2
2022-08-11 17:54:09.9510,-0.07,0.02,0.16,0.17
2022-08-11 17:54:09.9620,-0.01,0.16,0.15,0.21
2022-08-11 17:54:09.9720,0.0,0.3,0.14,0.33
2022-08-11 17:54:09.9800,-0.04,0.3,0.11,0.32
2022-08-11 17:54:09.9910,-0.05,0.22,0.12,0.25
2022-08-11 17:54:10.0060,-0.02,0.17,0.14,0.22
2022-08-11 17:54:10.0110,0.05,0.1,0.16,0.19
2022-08-11 17:54:10.0210,0.12,0.06,0.13,0.18
2022-08-11 17:54:10.0300,0.19,0.05,0.08,0.21
2022-08-11 17:54:10.0420,0.21,0.02,0.03,0.21
2022-08-11 17:54:10.0500,0.18,-0.04,-0.01,0.18
2022-08-11 17:54:10.0610,0.17,-0.07,-0.02,0.18
2022-08-11 17:54:10.0700,0.18,-0.08,-0.02,0.19
2022-08-11 17:54:10.0820,0.2,-0.02,0.01,0.2
2022-08-11 17:54:10.0900,0.22,0.06,0.05,0.23
2022-08-11 17:54:10.1070,0.21,0.09,0.09,0.24
2022-08-11 17:54:10.1100,0.18,0.08,0.1,0.22
2022-08-11 17:54:10.1210,0.15,0.09,0.12,0.21
2022-08-11 17:54:10.1300,0.11,0.1,0.11,0.18
2022-08-11 17:54:10.1420,0.02,0.12,0.09,0.15
2022-08-11 17:54:10.1490,-0.06,0.11,0.04,0.13
2022-08-11 17:54:10.1600,-0.07,0.06,0.04,0.1
2022-08-11 17:54:10.1710,-0.02,0.04,0.1,0.1
2022-08-11 17:54:10.1790,0.08,0.07,0.16,0.19
2022-08-11 17:54:10.1890,0.15,0.07,0.13,0.21
2022-08-11 17:54:10.2050,0.19,0.06,0.1,0.22
2022-08-11 17:54:10.2090,0.17,0.08,0.06,0.19
2022-08-11 17:54:10.2190,0.11,0.03,0.02,0.11
2022-08-11 17:54:10.2290,0.05,-0.02,0.0,0.05
2022-08-11 17:54:10.2390,0.0,-0.03,0.07,0.07
2022-08-11 17:54:10.2480,0.0,0.02,0.12,0.12
2022-08-11 17:54:10.2610,-0.02,0.08,0.14,0.16
2022-08-11 17:54:10.2680,-0.05,0.12,0.15,0.19
2022-08-11 17:54:10.2780,-0.07,0.14,0.15,0.21
2022-08-11 17:54:10.2900,-0.08,0.11,0.12,0.18
2022-08-11 17:54:10.3030,-0.07,0.08,0.09,0.13
2022-08-11 17:54:10.3080,-0.06,0.07,0.07,0.11
2022-08-11 17:54:10.3180,-0.01,0.08,0.07,0.1
2022-08-11 17:54:10.3290,0.08,0.06,0.09,0.13
2022-08-11 17:54:10.3380,0.14,0.05,0.06,0.16
2022-08-11 17:54:10.3480,0.17,0.04,0.01,0.17
2022-08-11 17:54:10.3590,0.21,-0.01,-0.02,0.21
2022-08-11 17:54:10.3680,0.22,0.04,-0.01,0.22
2022-08-11 17:54:10.3780,0.21,0.09,0.02,0.22
2022-08-11 17:54:10.3880,0.2,0.12,0.06,0.24
2022-08-11 17:54:10.4060,0.18,0.1,0.11,0.23
2022-08-11 17:54:10.4090,0.17,0.12,0.15,0.25
2022-08-11 17:54:10.4180,0.14,0.12,0.11,0.21
2022-08-11 17:54:10.4280,0.08,0.07,0.03,0.11
2022-08-11 17:54:10.4390,0.05,0.0,0.04,0.06
2022-08-11 17:54:10.4470,0.06,0.07,0.11,0.14
2022-08-11 17:54:10.4590,0.09,0.19,0.13,0.24
2022-08-11 17:54:10.4690,0.06,0.19,0.09,0.21
2022-08-11 17:54:10.4770,0.01,0.07,0.06,0.09
2022-08-11 17:54:10.4870,0.04,-0.02,0.04,0.06
2022-08-11 17:54:10.5060,0.06,-0.06,0.05,0.09
2022-08-11 17:54:10.5100,0.05,-0.08,0.03,0.09
2022-08-11 17:54:10.5160,0.05,-0.04,0.07,0.09
2022-08-11 17:54:10.5280,0.02,0.03,0.09,0.09
2022-08-11 17:54:10.5370,-0.04,0.1,0.1,0.14
2022-08-11 17:54:10.5470,-0.09,0.16,0.13,0.22
2022-08-11 17:54:10.5560,-0.12,0.19,0.13,0.25
2022-08-11 17:54:10.5670,-0.13,0.23,0.11,0.28
2022-08-11 17:54:10.5770,-0.11,0.27,0.12,0.31
2022-08-11 17:54:10.5880,-0.09,0.23,0.11,0.27
2022-08-11 17:54:10.6100,-0.06,0.14,0.07,0.16
2022-08-11 17:54:10.6130,0.0,0.02,0.04,0.04
2022-08-11 17:54:10.6160,0.05,-0.05,0.02,0.07
2022-08-11 17:54:10.6270,0.1,-0.08,0.03,0.13
2022-08-11 17:54:10.6370,0.16,-0.1,0.05,0.19
2022-08-11 17:54:10.6460,0.22,-0.05,0.08,0.23
2022-08-11 17:54:10.6580,0.26,0.03,0.09,0.27
2022-08-11 17:54:10.6680,0.23,0.08,0.08,0.25
2022-08-11 17:54:10.6760,0.17,0.1,0.07,0.2
2022-08-11 17:54:10.6870,0.14,0.06,0.06,0.16
2022-08-11 17:54:10.7100,0.13,0.09,0.12,0.19
2022-08-11 17:54:10.7120,0.12,0.1,0.12,0.19
2022-08-11 17:54:10.7150,0.1,0.08,0.1,0.16
2022-08-11 17:54:10.7260,0.08,0.07,0.1,0.14
2022-08-11 17:54:10.7370,0.03,0.06,0.09,0.11
2022-08-11 17:54:10.7450,-0.01,0.05,0.06,0.07
2022-08-11 17:54:10.7560,0.0,0.04,0.07,0.08
2022-08-11 17:54:10.7650,0.01,0.04,0.08,0.09
2022-08-11 17:54:10.7750,0.08,0.09,0.1,0.15
2022-08-11 17:54:10.7850,0.12,0.14,0.11,0.21
2022-08-11 17:54:10.7950,0.14,0.12,0.09,0.2
2022-08-11 17:54:10.8100,0.12,0.08,0.08,0.16
2022-08-11 17:54:10.8150,0.08,0.02,0.11,0.13
2022-08-11 17:54:10.8250,0.02,-0.01,0.15,0.15
2022-08-11 17:54:10.8360,-0.02,-0.03,0.12,0.12
2022-08-11 17:54:10.8460,-0.03,0.01,0.09,0.09
2022-08-11 17:54:10.8560,-0.03,0.07,0.08,0.11
2022-08-11 17:54:10.8640,-0.03,0.12,0.06,0.13
2022-08-11 17:54:10.8760,-0.04,0.14,0.05,0.15
2022-08-11 17:54:10.8840,-0.05,0.15,0.04,0.16
2022-08-11 17:54:10.8940,-0.04,0.11,0.04,0.12
2022-08-11 17:54:10.9090,-0.04,0.05,0.03,0.07
2022-08-11 17:54:10.9140,-0.03,0.04,0.05,0.07
2022-08-11 17:54:10.9240,0.01,0.06,0.09,0.1
2022-08-11 17:54:10.9350,0.04,0.1,0.11,0.15
2022-08-11 17:54:10.9430,0.05,0.12,0.11,0.17
2022-08-11 17:54:10.9540,0.07,0.11,0.1,0.16
2022-08-11 17:54:10.9650,0.1,0.06,0.09,0.14
2022-08-11 17:54:10.9750,0.12,0.01,0.06,0.13
2022-08-11 17:54:10.9830,0.15,-0.02,0.03,0.15
2022-08-11 17:54:10.9950,0.2,-0.02,0.05,0.2
2022-08-11 17:54:11.0080,0.23,0.02,0.04,0.23
2022-08-11 17:54:11.0130,0.23,0.05,0.02,0.23
2022-08-11 17:54:11.0230,0.24,0.07,0.08,0.26
2022-08-11 17:54:11.0340,0.25,0.08,0.14,0.29
2022-08-11 17:54:11.0440,0.27,0.11,0.14,0.32
2022-08-11 17:54:11.0530,0.24,0.09,0.11,0.27
2022-08-11 17:54:11.0630,0.2,0.06,0.08,0.22
2022-08-11 17:54:11.0740,0.18,0.03,0.08,0.19
2022-08-11 17:54:11.0840,0.17,0.0,0.05,0.17
2022-08-11 17:54:11.0930,0.14,-0.01,0.02,0.14
2022-08-11 17:54:11.1070,0.16,0.01,0.05,0.16
2022-08-11 17:54:11.1130,0.19,0.07,0.1,0.22
2022-08-11 17:54:11.1230,0.21,0.14,0.14,0.28
2022-08-11 17:54:11.1330,0.21,0.13,0.14,0.28
2022-08-11 17:54:11.1420,0.19,0.08,0.12,0.23
2022-08-11 17:54:11.1540,0.12,0.02,0.07,0.14
2022-08-11 17:54:11.1630,0.09,-0.01,0.04,0.09
2022-08-11 17:54:11.1720,0.04,0.0,0.03,0.05
2022-08-11 17:54:11.1820,-0.02,0.04,0.03,0.05
2022-08-11 17:54:11.1940,-0.06,0.08,0.05,0.11
2022-08-11 17:54:11.2130,-0.07,0.1,0.06,0.13
2022-08-11 17:54:11.2160,-0.1,0.12,0.06,0.16
2022-08-11 17:54:11.2220,-0.13,0.11,0.08,0.18
2022-08-11 17:54:11.2320,-0.13,0.09,0.09,0.18
2022-08-11 17:54:11.2430,-0.12,0.1,0.09,0.18
2022-08-11 17:54:11.2510,-0.09,0.08,0.09,0.15
2022-08-11 17:54:11.2630,-0.06,0.02,0.08,0.1
2022-08-11 17:54:11.2720,-0.01,-0.01,0.07,0.07
2022-08-11 17:54:11.2830,0.07,0.01,0.07,0.09
2022-08-11 17:54:11.2930,0.12,0.05,0.08,0.15
2022-08-11 17:54:11.3130,0.16,0.11,0.1,0.21
2022-08-11 17:54:11.3160,0.17,0.12,0.08,0.22
2022-08-11 17:54:11.3210,0.17,0.09,0.05,0.19
2022-08-11 17:54:11.3310,0.15,0.06,0.06,0.17
2022-08-11 17:54:11.3430,0.12,0.04,0.05,0.13
2022-08-11 17:54:11.3510,0.09,0.03,0.08,0.12
2022-08-11 17:54:11.3610,0.05,0.03,0.07,0.09
2022-08-11 17:54:11.3710,0.03,0.06,0.07,0.09
2022-08-11 17:54:11.3810,-0.01,0.09,0.05,0.1
2022-08-11 17:54:11.3910,-0.04,0.1,0.05,0.11
2022-08-11 17:54:11.4140,-0.05,0.09,0.05,0.11
2022-08-11 17:54:11.4150,-0.06,0.09,0.07,0.12
2022-08-11 17:54:11.4200,-0.04,0.1,0.08,0.13
2022-08-11 17:54:11.4310,-0.03,0.08,0.07,0.11
2022-08-11 17:54:11.4400,-0.05,0.04,0.05,0.08
2022-08-11 17:54:11.4500,-0.08,0.03,0.05,0.09
2022-08-11 17:54:11.4610,-0.11,0.05,0.04,0.12
2022-08-11 17:54:11.4700,-0.13,0.07,0.04,0.15
2022-08-11 17:54:11.4800,-0.1,0.09,0.08,0.15
2022-08-11 17:54:11.4920,-0.06,0.11,0.12,0.17
2022-08-11 17:54:11.5140,-0.01,0.12,0.14,0.18
2022-08-11 17:54:11.5160,0.07,0.16,0.13,0.21
2022-08-11 17:54:11.5200,0.11,0.17,0.11,0.23
2022-08-11 17:54:11.5300,0.15,0.12,0.06,0.2
2022-08-11 17:54:11.5400,0.19,0.04,0.05,0.2
2022-08-11 17:54:11.5490,0.2,0.01,0.07,0.21
2022-08-11 17:54:11.5610,0.19,0.0,0.09,0.21
2022-08-11 17:54:11.5710,0.17,0.01,0.09,0.19
2022-08-11 17:54:11.5790,0.15,0.01,0.09,0.17
2022-08-11 17:54:11.5890,0.14,0.03,0.08,0.16
2022-08-11 17:54:11.5990,0.13,0.06,0.09,0.16
2022-08-11 17:54:11.6120,0.09,0.03,0.07,0.11
2022-08-11 17:54:11.6200,0.05,-0.03,0.05,0.07
2022-08-11 17:54:11.6290,0.03,0.01,0.08,0.08
2022-08-11 17:54:11.6400,0.04,0.1,0.09,0.14
2022-08-11 17:54:11.6490,0.04,0.14,0.05,0.15
2022-08-11 17:54:11.6600,0.08,0.14,0.04,0.16
2022-08-11 17:54:11.6680,0.15,0.14,0.05,0.21
2022-08-11 17:54:11.6780,0.2,0.07,0.05,0.21
2022-08-11 17:54:11.6890,0.21,-0.02,0.01,0.21
2022-08-11 17:54:11.6990,0.22,-0.05,0.03,0.22
2022-08-11 17:54:11.7140,0.22,-0.03,0.05,0.22
2022-08-11 17:54:11.7190,0.18,0.02,0.04,0.18
2022-08-11 17:54:11.7290,0.16,0.09,0.07,0.19
2022-08-11 17:54:11.7380,0.16,0.15,0.13,0.25
2022-08-11 17:54:11.7480,0.14,0.19,0.16,0.28
2022-08-11 17:54:11.7590,0.09,0.19,0.14,0.25
2022-08-11 17:54:11.7680,0.06,0.16,0.07,0.18
2022-08-11 17:54:11.7780,0.01,0.07,0.01,0.07
2022-08-11 17:54:11.7880,-0.04,0.01,0.02,0.04
2022-08-11 17:54:11.7980,-0.04,-0.05,0.05,0.08
2022-08-11 17:54:11.8130,-0.01,-0.06,0.08,0.1
2022-08-11 17:54:11.8170,0.05,0.0,0.12,0.13
2022-08-11 17:54:11.8270,0.07,0.06,0.11,0.14
2022-08-11 17:54:11.8370,0.06,0.1,0.08,0.14
2022-08-11 17:54:11.8490,0.05,0.13,0.07,0.15
2022-08-11 17:54:11.8570,0.02,0.09,0.04,0.1
2022-08-11 17:54:11.8680,0.0,0.06,0.03,0.06
2022-08-11 17:54:11.8770,0.03,0.05,0.09,0.1
2022-08-11 17:54:11.8870,0.05,0.1,0.13,0.17
2022-08-11 17:54:11.8970,0.06,0.14,0.12,0.19
2022-08-11 17:54:11.9130,0.06,0.11,0.07,0.14
2022-08-11 17:54:11.9170,0.05,0.07,0.03,0.09
2022-08-11 17:54:11.9270,0.04,0.04,0.01,0.05
2022-08-11 17:54:11.9380,0.06,0.03,0.03,0.07
2022-08-11 17:54:11.9460,0.1,0.02,0.03,0.1
2022-08-11 17:54:11.9590,0.13,0.03,0.01,0.13
2022-08-11 17:54:11.9660,0.13,-0.02,-0.05,0.14
2022-08-11 17:54:11.9770,0.14,-0.12,-0.04,0.18
2022-08-11 17:54:11.9860,0.14,-0.09,0.03,0.16
2022-08-11 17:54:11.9960,0.13,0.02,0.06,0.14
2022-08-11 17:54:12.0180,0.12,0.14,0.07,0.19
2022-08-11 17:54:12.0210,0.06,0.2,0.05,0.21
2022-08-11 17:54:12.0270,-0.02,0.21,0.02,0.21
2022-08-11 17:54:12.0370,-0.02,0.16,0.01,0.16
2022-08-11 17:54:12.0460,0.0,0.08,0.04,0.08
2022-08-11 17:54:12.0560,0.07,0.06,0.06,0.11
2022-08-11 17:54:12.0660,0.14,0.07,0.07,0.17
2022-08-11 17:54:12.0760,0.18,0.06,0.03,0.19
2022-08-11 17:54:12.0870,0.2,0.07,0.07,0.22
2022-08-11 17:54:12.0960,0.17,0.03,0.11,0.2
2022-08-11 17:54:12.1150,0.13,0.01,0.1,0.16
2022-08-11 17:54:12.1180,0.1,-0.01,0.09,0.13
2022-08-11 17:54:12.1260,0.06,0.0,0.05,0.07
2022-08-11 17:54:12.1360,0.01,0.03,0.01,0.03
2022-08-11 17:54:12.1470,0.03,0.04,0.01,0.05
2022-08-11 17:54:12.1550,0.07,0.04,0.04,0.09
2022-08-11 17:54:12.1670,0.04,-0.02,-0.01,0.04
2022-08-11 17:54:12.1750,0.0,-0.03,-0.04,0.05
2022-08-11 17:54:12.1850,0.07,0.05,0.02,0.08
2022-08-11 17:54:12.1950,0.11,0.14,0.02,0.17
2022-08-11 17:54:12.2190,0.16,0.21,0.03,0.26
2022-08-11 17:54:12.2210,0.24,0.21,0.03,0.32
2022-08-11 17:54:12.2240,0.29,0.16,0.08,0.34
2022-08-11 17:54:12.2340,0.32,0.11,0.08,0.34
2022-08-11 17:54:12.2450,0.37,0.09,0.14,0.4
2022-08-11 17:54:12.2550,0.38,0.0,0.16,0.41
2022-08-11 17:54:12.2660,0.33,-0.11,0.09,0.35
2022-08-11 17:54:12.2740,0.24,-0.2,0.06,0.31
2022-08-11 17:54:12.2840,0.13,-0.19,0.13,0.26
2022-08-11 17:54:12.2940,0.07,-0.05,0.2,0.21
2022-08-11 17:54:12.3180,0.05,0.09,0.23,0.25
2022-08-11 17:54:12.3200,-0.01,0.22,0.21,0.3
2022-08-11 17:54:12.3240,-0.09,0.3,0.22,0.38
2022-08-11 17:54:12.3350,-0.19,0.27,0.21,0.39
2022-08-11 17:54:12.3450,-0.24,0.14,0.16,0.32
2022-08-11 17:54:12.3540,-0.23,-0.01,0.18,0.29
2022-08-11 17:54:12.3640,-0.14,-0.11,0.22,0.28
2022-08-11 17:54:12.3740,-0.03,-0.12,0.18,0.21
2022-08-11 17:54:12.3830,0.14,-0.03,0.16,0.21
2022-08-11 17:54:12.3940,0.32,0.1,0.19,0.38
2022-08-11 17:54:12.4050,0.37,0.15,0.12,0.41
2022-08-11 17:54:12.4210,0.34,0.12,0.06,0.36
2022-08-11 17:54:12.4240,0.29,0.06,0.06,0.3
2022-08-11 17:54:12.4340,0.21,0.05,0.04,0.21
2022-08-11 17:54:12.4440,0.11,0.09,0.03,0.14
2022-08-11 17:54:12.4530,-0.06,0.09,-0.04,0.11
2022-08-11 17:54:12.4640,-0.34,-0.05,-0.17,0.38
2022-08-11 17:54:12.4740,-0.5,0.05,-0.06,0.5
2022-08-11 17:54:12.4830,-0.63,0.12,-0.05,0.64
2022-08-11 17:54:12.4930,-0.88,0.04,-0.26,0.91
2022-08-11 17:54:12.5030,-1.03,0.02,-0.3,1.07
2022-08-11 17:54:12.5170,-0.94,-0.05,-0.24,0.97
2022-08-11 17:54:12.5230,-0.87,0.02,-0.26,0.9
2022-08-11 17:54:12.5330,-0.69,0.16,-0.26,0.75
2022-08-11 17:54:12.5440,-0.41,0.27,-0.16,0.51
2022-08-11 17:54:12.5530,-0.13,0.42,-0.06,0.44
2022-08-11 17:54:12.5640,0.15,0.48,0.03,0.5
2022-08-11 17:54:12.5720,0.39,0.45,0.09,0.6
2022-08-11 17:54:12.5840,0.6,0.37,0.04,0.7
2022-08-11 17:54:12.5920,0.65,0.12,-0.11,0.67
2022-08-11 17:54:12.6020,0.57,-0.17,-0.16,0.61
2022-08-11 17:54:12.6180,0.57,-0.25,0.02,0.62
2022-08-11 17:54:12.6220,0.59,-0.14,0.21,0.64
2022-08-11 17:54:12.6320,0.61,0.04,0.32,0.69
2022-08-11 17:54:12.6430,0.7,0.13,0.31,0.77
2022-08-11 17:54:12.6520,0.76,0.05,0.25,0.8
2022-08-11 17:54:12.6610,0.79,-0.1,0.27,0.84
2022-08-11 17:54:12.6730,0.79,-0.18,0.29,0.86
2022-08-11 17:54:12.6810,0.73,-0.22,0.25,0.8
2022-08-11 17:54:12.6920,0.73,-0.22,0.24,0.79
2022-08-11 17:54:12.7030,0.71,-0.2,0.24,0.77
2022-08-11 17:54:12.7190,0.76,-0.1,0.3,0.82
2022-08-11 17:54:12.7220,0.87,0.14,0.39,0.96
2022-08-11 17:54:12.7320,0.97,0.4,0.38,1.11
2022-08-11 17:54:12.7420,0.94,0.56,0.28,1.12
2022-08-11 17:54:12.7510,0.81,0.57,0.14,1.0
2022-08-11 17:54:12.7610,0.59,0.47,-0.01,0.75
2022-08-11 17:54:12.7710,0.46,0.36,0.12,0.59
2022-08-11 17:54:12.7810,0.21,0.24,0.06,0.32
2022-08-11 17:54:12.7920,-0.17,0.0,-0.15,0.22
2022-08-11 17:54:12.8010,-0.53,-0.29,-0.31,0.67
2022-08-11 17:54:12.8200,-0.72,-0.48,-0.36,0.93
2022-08-11 17:54:12.8230,-0.78,-0.59,-0.26,1.01
2022-08-11 17:54:12.8310,-0.82,-0.65,-0.17,1.06
2022-08-11 17:54:12.8410,-0.83,-0.45,-0.01,0.94
2022-08-11 17:54:12.8520,-0.88,-0.08,0.02,0.88
2022-08-11 17:54:12.8600,-0.87,0.13,0.03,0.88
2022-08-11 17:54:12.8700,-0.77,0.18,0.1,0.79
2022-08-11 17:54:12.8800,-0.61,0.21,0.18,0.66
2022-08-11 17:54:12.8900,-0.41,0.37,0.09,0.55
2022-08-11 17:54:12.9000,-0.26,0.45,-0.09,0.52
2022-08-11 17:54:12.9210,-0.14,0.46,-0.12,0.49
2022-08-11 17:54:12.9240,0.08,0.52,-0.07,0.53
2022-08-11 17:54:12.9300,0.22,0.36,-0.02,0.42
2022-08-11 17:54:12.9410,0.43,0.15,0.13,0.47
2022-08-11 17:54:12.9490,0.54,-0.05,0.07,0.54
2022-08-11 17:54:12.9590,0.53,-0.29,-0.07,0.6
2022-08-11 17:54:12.9710,0.59,-0.22,-0.1,0.63
2022-08-11 17:54:12.9790,0.66,-0.16,0.09,0.68
2022-08-11 17:54:12.9910,0.58,0.03,0.2,0.61
2022-08-11 17:54:13.0010,0.52,0.31,0.13,0.61
2022-08-11 17:54:13.0220,0.41,0.4,0.11,0.58
2022-08-11 17:54:13.0240,0.26,0.29,0.17,0.42
2022-08-11 17:54:13.0290,0.13,0.1,0.22,0.27
2022-08-11 17:54:13.0390,0.11,0.08,0.22,0.25
2022-08-11 17:54:13.0490,0.08,0.21,0.11,0.25
2022-08-11 17:54:13.0600,-0.06,0.32,-0.06,0.33
2022-08-11 17:54:13.0690,-0.21,0.27,-0.09,0.35
2022-08-11 17:54:13.0790,-0.31,0.16,-0.01,0.34
2022-08-11 17:54:13.0910,-0.23,0.01,0.12,0.25
2022-08-11 17:54:13.1000,-0.12,-0.14,0.11,0.21
2022-08-11 17:54:13.1210,0.04,-0.06,0.13,0.14
2022-08-11 17:54:13.1230,0.15,0.14,0.18,0.27
2022-08-11 17:54:13.1280,0.16,0.29,0.21,0.39
2022-08-11 17:54:13.1390,0.18,0.43,0.32,0.56
2022-08-11 17:54:13.1480,0.18,0.48,0.4,0.65
2022-08-11 17:54:13.1590,0.14,0.33,0.3,0.46
2022-08-11 17:54:13.1680,0.08,0.02,0.13,0.15
2022-08-11 17:54:13.1790,-0.05,-0.25,-0.02,0.25
2022-08-11 17:54:13.1890,-0.14,-0.26,-0.07,0.3
2022-08-11 17:54:13.1980,-0.24,-0.23,-0.04,0.33
2022-08-11 17:54:13.2090,-0.38,-0.29,-0.03,0.47
2022-08-11 17:54:13.2210,-0.34,-0.31,0.08,0.46
2022-08-11 17:54:13.2280,-0.23,-0.28,0.14,0.38
2022-08-11 17:54:13.2380,-0.08,-0.09,0.15,0.19
2022-08-11 17:54:13.2490,0.04,0.12,0.1,0.16
2022-08-11 17:54:13.2570,0.08,0.21,0.03,0.22
2022-08-11 17:54:13.2670,0.07,0.15,-0.04,0.17
2022-08-11 17:54:13.2780,0.02,-0.05,-0.05,0.07
2022-08-11 17:54:13.2870,-0.08,-0.27,-0.09,0.29
2022-08-11 17:54:13.2970,-0.15,-0.42,-0.17,0.47
2022-08-11 17:54:13.3090,-0.13,-0.42,-0.16,0.46
2022-08-11 17:54:13.3220,-0.12,-0.29,-0.16,0.35
2022-08-11 17:54:13.3270,-0.11,-0.08,-0.16,0.21
2022-08-11 17:54:13.3370,-0.12,0.11,-0.16,0.22
2022-08-11 17:54:13.3480,-0.14,0.22,-0.23,0.34
2022-08-11 17:54:13.3580,-0.1,0.21,-0.2,0.3
2022-08-11 17:54:13.3670,0.0,0.14,-0.1,0.17
2022-08-11 17:54:13.3780,0.18,0.08,0.0,0.19
2022-08-11 17:54:13.3860,0.38,-0.01,0.03,0.38
2022-08-11 17:54:13.3960,0.72,-0.1,0.08,0.73
2022-08-11 17:54:13.4080,1.04,-0.07,0.09,1.04
2022-08-11 17:54:13.4210,1.2,-0.03,0.03,1.2
2022-08-11 17:54:13.4270,1.28,-0.06,-0.03,1.28
2022-08-11 17:54:13.4370,1.29,-0.02,-0.04,1.29
2022-08-11 17:54:13.4460,1.15,0.04,-0.12,1.15
2022-08-11 17:54:13.4580,0.86,-0.05,-0.22,0.88
2022-08-11 17:54:13.4660,0.69,-0.04,0.03,0.69
2022-08-11 17:54:13.4760,0.58,0.12,0.28,0.65
2022-08-11 17:54:13.4870,0.44,0.07,0.26,0.51
2022-08-11 17:54:13.4950,0.36,-0.07,0.24,0.43
2022-08-11 17:54:13.5060,0.31,-0.15,0.22,0.4
2022-08-11 17:54:13.5190,0.24,-0.11,0.08,0.27
2022-08-11 17:54:13.5260,0.22,0.01,-0.06,0.22
2022-08-11 17:54:13.5360,0.18,0.08,-0.15,0.24
2022-08-11 17:54:13.5460,0.04,0.03,-0.21,0.21
2022-08-11 17:54:13.5560,-0.05,-0.13,-0.21,0.25
2022-08-11 17:54:13.5660,-0.03,-0.27,-0.23,0.35
2022-08-11 17:54:13.5750,-0.02,-0.23,-0.17,0.28
2022-08-11 17:54:13.5850,-0.01,-0.19,-0.15,0.24
2022-08-11 17:54:13.5950,0.0,-0.16,-0.15,0.21
2022-08-11 17:54:13.6050,-0.08,-0.12,-0.07,0.16
2022-08-11 17:54:13.6230,-0.21,-0.07,0.07,0.23
2022-08-11 17:54:13.6260,-0.4,-0.07,0.17,0.44
2022-08-11 17:54:13.6350,-0.59,-0.08,0.13,0.6
2022-08-11 17:54:13.6450,-0.76,0.0,0.02,0.76
2022-08-11 17:54:13.6540,-0.89,0.16,-0.09,0.9
2022-08-11 17:54:13.6660,-1.0,0.37,-0.18,1.08
2022-08-11 17:54:13.6750,-1.07,0.57,-0.25,1.23
2022-08-11 17:54:13.6850,-0.99,0.67,-0.21,1.21
2022-08-11 17:54:13.6960,-0.77,0.59,-0.17,0.98
2022-08-11 17:54:13.7040,-0.49,0.4,-0.2,0.66
2022-08-11 17:54:13.7270,-0.22,0.21,-0.29,0.42
2022-08-11 17:54:13.7300,0.06,0.1,-0.37,0.38
2022-08-11 17:54:13.7340,0.32,0.0,-0.44,0.54
2022-08-11 17:54:13.7440,0.5,-0.13,-0.48,0.7
2022-08-11 17:54:13.7550,0.67,-0.33,-0.44,0.86
2022-08-11 17:54:13.7640,0.78,-0.51,-0.38,1.0
2022-08-11 17:54:13.7750,0.84,-0.64,-0.37,1.11
2022-08-11 17:54:13.7860,0.98,-0.8,-0.29,1.29
2022-08-11 17:54:13.7940,1.17,-0.91,-0.23,1.49
2022-08-11 17:54:13.8040,1.37,-0.92,-0.22,1.66
2022-08-11 17:54:13.8280,1.61,-0.76,-0.21,1.79
2022-08-11 17:54:13.8310,1.89,-0.55,-0.12,1.97
2022-08-11 17:54:13.8340,1.98,-0.36,-0.15,2.01
2022-08-11 17:54:13.8430,1.99,-0.17,-0.5,2.05
2022-08-11 17:54:13.8540,2.13,0.05,-0.86,2.29
2022-08-11 17:54:13.8640,2.25,0.39,-0.89,2.45
2022-08-11 17:54:13.8730,2.21,0.76,-0.53,2.39
2022-08-11 17:54:13.8840,2.13,0.88,0.03,2.3
2022-08-11 17:54:13.8930,2.02,0.65,0.39,2.15
2022-08-11 17:54:13.9040,2.04,0.27,0.41,2.09
2022-08-11 17:54:13.9260,2.39,-0.21,0.62,2.47
2022-08-11 17:54:13.9280,2.72,-0.66,0.96,2.95
2022-08-11 17:54:13.9320,2.67,-1.02,0.97,3.01
2022-08-11 17:54:13.9430,2.43,-1.19,0.98,2.87
2022-08-11 17:54:13.9540,2.16,-1.29,0.86,2.65
2022-08-11 17:54:13.9620,1.93,-1.24,0.73,2.4
2022-08-11 17:54:13.9720,1.67,-0.89,0.86,2.07
2022-08-11 17:54:13.9820,1.36,-0.36,1.09,1.77
2022-08-11 17:54:13.9930,1.21,-0.02,1.23,1.72
2022-08-11 17:54:14.0030,1.13,0.11,1.15,1.61
2022-08-11 17:54:14.0120,0.89,0.1,1.03,1.36
2022-08-11 17:54:14.0270,0.58,-0.11,0.92,1.09
2022-08-11 17:54:14.0320,0.52,-0.44,0.95,1.16
2022-08-11 17:54:14.0420,0.84,-0.52,0.9,1.33
2022-08-11 17:54:14.0530,1.38,-0.27,0.71,1.57
2022-08-11 17:54:14.0620,1.84,0.16,0.48,1.9
2022-08-11 17:54:14.0710,2.12,0.41,0.49,2.21
2022-08-11 17:54:14.0810,2.15,0.61,0.74,2.35
2022-08-11 17:54:14.0930,1.63,1.12,0.95,2.19
2022-08-11 17:54:14.1010,1.48,1.12,0.7,1.98
2022-08-11 17:54:14.1110,1.61,0.22,0.47,1.69
2022-08-11 17:54:14.1250,1.39,-0.4,0.43,1.5
2022-08-11 17:54:14.1320,1.11,-0.27,0.44,1.22
2022-08-11 17:54:14.1410,1.14,0.07,0.41,1.21
2022-08-11 17:54:14.1520,1.33,0.42,0.15,1.4
2022-08-11 17:54:14.1620,1.52,0.94,-0.07,1.78
2022-08-11 17:54:14.1710,1.51,1.52,-0.05,2.14
2022-08-11 17:54:14.1810,1.28,1.87,0.03,2.26
2022-08-11 17:54:14.1910,1.08,1.99,0.03,2.26
2022-08-11 17:54:14.2010,1.03,1.9,0.04,2.16
2022-08-11 17:54:14.2120,1.0,1.67,0.17,1.95
2022-08-11 17:54:14.2280,1.14,1.38,0.24,1.8
2022-08-11 17:54:14.2300,1.34,1.3,0.13,1.87
2022-08-11 17:54:14.2410,1.57,1.46,0.03,2.14
2022-08-11 17:54:14.2500,1.83,1.76,0.16,2.54
2022-08-11 17:54:14.2610,2.47,2.13,0.36,3.28
2022-08-11 17:54:14.2710,3.63,2.56,0.49,4.46
2022-08-11 17:54:14.2800,5.0,2.88,0.48,5.79
2022-08-11 17:54:14.2900,6.47,3.12,0.28,7.18
2022-08-11 17:54:14.3000,7.87,3.69,-0.11,8.69
2022-08-11 17:54:14.3100,8.57,4.57,-0.28,9.71
2022-08-11 17:54:14.3260,8.46,5.28,-0.34,9.97
2022-08-11 17:54:14.3290,8.12,5.62,-0.56,9.89
2022-08-11 17:54:14.3390,7.67,5.73,-0.81,9.6
2022-08-11 17:54:14.3490,7.32,5.81,-0.67,9.36
2022-08-11 17:54:14.3610,7.51,5.83,-0.16,9.5
2022-08-11 17:54:14.3710,8.16,5.52,0.54,9.86
2022-08-11 17:54:14.3800,8.75,4.14,1.53,9.8
2022-08-11 17:54:14.3900,9.0,2.01,1.91,9.41
2022-08-11 17:54:14.3990,8.87,-0.08,1.69,9.02
2022-08-11 17:54:14.4090,8.21,-1.7,1.63,8.54
2022-08-11 17:54:14.4270,7.2,-2.77,2.18,8.01
2022-08-11 17:54:14.4310,6.09,-3.07,2.95,7.43
2022-08-11 17:54:14.4390,5.12,-2.78,3.24,6.66
2022-08-11 17:54:14.4500,4.18,-2.18,2.51,5.34
2022-08-11 17:54:14.4600,3.08,-1.28,1.04,3.49
2022-08-11 17:54:14.4690,1.87,1.02,-1.04,2.37
2022-08-11 17:54:14.4790,1.05,5.79,-2.02,6.22
2022-08-11 17:54:14.4880,-0.77,8.76,-1.33,8.89
2022-08-11 17:54:14.4990,-3.08,10.82,0.16,11.25
2022-08-11 17:54:14.5090,-5.03,13.76,1.58,14.73
2022-08-11 17:54:14.5270,-6.09,16.53,2.46,17.78
2022-08-11 17:54:14.5300,-5.14,17.31,2.39,18.21
2022-08-11 17:54:14.5380,-2.19,14.16,2.23,14.5
2022-08-11 17:54:14.5490,1.3,9.55,1.56,9.76
2022-08-11 17:54:14.5580,4.08,7.18,0.39,8.26
2022-08-11 17:54:14.5690,6.36,6.95,0.02,9.42
2022-08-11 17:54:14.5790,7.4,7.57,-0.28,10.58
2022-08-11 17:54:14.5890,8.01,8.25,-0.86,11.53
2022-08-11 17:54:14.5980,7.82,8.27,-1.2,11.44
2022-08-11 17:54:14.6080,6.75,6.92,-0.37,9.67
2022-08-11 17:54:14.6290,4.38,3.9,1.78,6.12
2022-08-11 17:54:14.6310,1.84,-0.44,3.68,4.13
2022-08-11 17:54:14.6380,0.05,-4.32,5.03,6.63
2022-08-11 17:54:14.6480,-1.75,-7.07,6.29,9.62
2022-08-11 17:54:14.6590,-3.81,-10.09,6.99,12.85
2022-08-11 17:54:14.6670,-6.38,-12.7,7.48,16.06
2022-08-11 17:54:14.6790,-9.67,-14.28,7.41,18.77
2022-08-11 17:54:14.6870,-14.05,-15.49,6.28,21.83
2022-08-11 17:54:14.6970,-19.07,-18.82,2.96,26.95
2022-08-11 17:54:14.7090,-21.4,-23.68,-1.84,31.97
2022-08-11 17:54:14.7300,-18.37,-26.9,-6.88,33.29
2022-08-11 17:54:14.7320,-11.84,-25.58,-8.03,29.3
2022-08-11 17:54:14.7360,-5.55,-19.44,-5.74,21.01
2022-08-11 17:54:14.7470,-3.57,-12.74,-2.35,13.43
2022-08-11 17:54:14.7570,-2.49,-7.83,-1.57,8.36
2022-08-11 17:54:14.7680,-0.58,-5.26,-2.03,5.66
2022-08-11 17:54:14.7760,1.36,-4.66,-1.28,5.02
2022-08-11 17:54:14.7880,4.31,-4.77,1.49,6.59
2022-08-11 17:54:14.7970,6.75,-4.44,4.09,9.05
2022-08-11 17:54:14.8060,7.36,-3.07,4.4,9.1
2022-08-11 17:54:14.8180,6.49,-0.84,2.73,7.09
2022-08-11 17:54:14.8320,4.77,1.71,0.25,5.07
2022-08-11 17:54:14.8360,0.78,6.06,-0.81,6.16
2022-08-11 17:54:14.8470,-6.62,12.57,1.07,14.24
2022-08-11 17:54:14.8570,-13.75,17.65,3.78,22.69
2022-08-11 17:54:14.8660,-13.78,17.88,4.64,23.04
2022-08-11 17:54:14.8760,-7.7,14.48,3.41,16.75
2022-08-11 17:54:14.8870,-1.72,11.52,0.74,11.67
2022-08-11 17:54:14.8960,5.06,9.7,-0.34,10.94
2022-08-11 17:54:14.9070,11.13,9.65,-0.31,14.73
2022-08-11 17:54:14.9160,14.82,11.69,0.12,18.87
2022-08-11 17:54:14.9290,16.43,14.71,2.13,22.15
2022-08-11 17:54:14.9360,17.1,17.33,3.47,24.59
2022-08-11 17:54:14.9450,18.04,17.42,3.27,25.29
2022-08-11 17:54:14.9560,17.28,13.01,1.47,21.67
2022-08-11 17:54:14.9650,12.3,5.72,0.76,13.58
2022-08-11 17:54:14.9760,6.17,0.24,-0.14,6.17
2022-08-11 17:54:14.9860,1.63,-2.82,-2.15,3.9
2022-08-11 17:54:14.9950,0.31,-4.44,-4.51,6.33
2022-08-11 17:54:15.0060,1.05,-5.35,-5.68,7.87
2022-08-11 17:54:15.0150,1.58,-5.46,-5.34,7.79
2022-08-11 17:54:15.0290,2.06,-4.84,-3.05,6.08
2022-08-11 17:54:15.0350,3.21,-4.06,-0.09,5.17
2022-08-11 17:54:15.0440,4.49,-3.78,1.7,6.11
2022-08-11 17:54:15.0550,5.2,-4.65,1.77,7.19
2022-08-11 17:54:15.0660,4.9,-6.51,0.43,8.15
2022-08-11 17:54:15.0760,3.74,-8.75,-0.92,9.56
2022-08-11 17:54:15.0860,1.91,-11.12,-1.7,11.41
2022-08-11 17:54:15.0960,-0.34,-13.26,-1.91,13.4
2022-08-11 17:54:15.1040,-2.34,-14.93,-1.67,15.2
2022-08-11 17:54:15.1140,-3.91,-16.02,-0.75,16.5
2022-08-11 17:54:15.1280,-4.82,-16.36,1.12,17.09
2022-08-11 17:54:15.1350,-5.3,-15.94,3.39,17.13
2022-08-11 17:54:15.1450,-5.87,-14.57,5.07,16.5
2022-08-11 17:54:15.1540,-6.43,-11.72,4.77,14.19
2022-08-11 17:54:15.1640,-3.94,-6.21,3.37,8.08
2022-08-11 17:54:15.1750,-1.31,0.13,2.46,2.79
2022-08-11 17:54:15.1830,-0.31,17.73,-11.29,21.02
2022-08-11 17:54:15.1950,0.68,37.76,-15.99,41.01
2022-08-11 17:54:15.2050,2.1,50.71,-7.85,51.35
2022-08-11 17:54:15.2130,3.31,51.65,0.42,51.75
2022-08-11 17:54:15.2310,4.91,34.33,1.57,34.71
2022-08-11 17:54:15.2340,6.64,16.15,3.25,17.76
2022-08-11 17:54:15.2430,10.4,8.21,4.43,13.97
2022-08-11 17:54:15.2540,11.64,5.36,3.59,13.3
2022-08-11 17:54:15.2640,11.56,3.21,0.36,12.0
2022-08-11 17:54:15.2740,11.85,1.49,-2.27,12.15
2022-08-11 17:54:15.2830,11.45,0.6,-1.22,11.53
2022-08-11 17:54:15.2950,9.63,-0.21,2.35,9.91
2022-08-11 17:54:15.3040,6.49,-1.49,5.36,8.54
2022-08-11 17:54:15.3130,2.37,-3.1,6.77,7.81
2022-08-11 17:54:15.3320,-1.85,-5.37,6.02,8.27
2022-08-11 17:54:15.3350,-6.03,-8.81,4.14,11.45
2022-08-11 17:54:15.3430,-9.39,-13.03,3.39,16.41
2022-08-11 17:54:15.3540,-12.66,-17.14,4.0,21.68
2022-08-11 17:54:15.3620,-18.1,-20.58,8.16,28.59
2022-08-11 17:54:15.3720,-25.63,-24.58,11.49,37.32
2022-08-11 17:54:15.3840,-28.92,-27.7,5.45,40.41
2022-08-11 17:54:15.3920,-23.83,-28.19,-8.8,37.94
2022-08-11 17:54:15.4020,-14.11,-24.04,-19.8,34.19
2022-08-11 17:54:15.4130,-7.78,-12.11,-13.35,19.63
2022-08-11 17:54:15.4340,-5.71,-3.99,-6.04,9.21
2022-08-11 17:54:15.4370,-4.25,-3.08,1.35,5.41
2022-08-11 17:54:15.4410,-0.39,-3.01,6.5,7.17
2022-08-11 17:54:15.4520,5.07,-3.27,8.34,10.29
2022-08-11 17:54:15.4630,10.58,-2.66,5.64,12.28
2022-08-11 17:54:15.4720,13.59,-0.83,0.87,13.64
2022-08-11 17:54:15.4820,13.04,1.35,-0.37,13.11
2022-08-11 17:54:15.4910,7.01,6.86,0.67,9.83
2022-08-11 17:54:15.5010,-7.04,16.6,4.05,18.48
2022-08-11 17:54:15.5110,-20.16,22.8,9.08,31.76
2022-08-11 17:54:15.5340,-20.0,22.41,10.22,31.72
2022-08-11 17:54:15.5360,-10.73,17.39,5.46,21.15
2022-08-11 17:54:15.5410,-0.69,12.44,-0.87,12.48
2022-08-11 17:54:15.5510,7.36,10.07,-4.82,13.37
2022-08-11 17:54:15.5620,8.96,9.95,-4.62,14.16
2022-08-11 17:54:15.5700,8.03,11.48,0.88,14.03
2022-08-11 17:54:15.5810,10.34,13.51,4.5,17.59
2022-08-11 17:54:15.5900,13.72,13.94,6.17,20.5
2022-08-11 17:54:15.6010,15.96,12.99,4.58,21.08
2022-08-11 17:54:15.6110,15.41,9.52,0.78,18.13
2022-08-11 17:54:15.6230,10.01,3.34,-1.78,10.7
2022-08-11 17:54:15.6360,5.45,-1.4,-2.55,6.17
2022-08-11 17:54:15.6400,4.07,-3.6,-3.88,6.67
2022-08-11 17:54:15.6500,4.24,-4.22,-4.59,7.54
2022-08-11 17:54:15.6600,4.43,-4.08,-4.42,7.47
2022-08-11 17:54:15.6710,4.35,-3.79,-3.91,6.96
2022-08-11 17:54:15.6810,4.33,-3.94,-2.78,6.48
2022-08-11 17:54:15.6910,4.89,-4.88,-0.63,6.93
2022-08-11 17:54:15.7000,6.14,-6.44,1.49,9.02
2022-08-11 17:54:15.7100,7.66,-8.7,2.49,11.85
2022-08-11 17:54:15.7210,8.5,-11.26,1.98,14.24
2022-08-11 17:54:15.7350,8.17,-13.77,0.49,16.01
2022-08-11 17:54:15.7400,6.65,-15.67,-1.21,17.06
2022-08-11 17:54:15.7500,4.21,-16.74,-2.31,17.41
2022-08-11 17:54:15.7600,1.56,-16.99,-2.72,17.27
2022-08-11 17:54:15.7710,-0.47,-16.6,-2.46,16.78
2022-08-11 17:54:15.7790,-1.71,-15.17,-1.12,15.3
2022-08-11 17:54:15.7900,-2.73,-12.82,0.54,13.11
2022-08-11 17:54:15.7990,-3.51,-9.89,2.06,10.69
2022-08-11 17:54:15.8110,-3.93,-6.34,2.75,7.95
2022-08-11 17:54:15.8210,-3.04,-1.46,0.95,3.5
2022-08-11 17:54:15.8350,-0.14,3.91,2.34,4.55
2022-08-11 17:54:15.8390,-1.36,11.91,1.4,12.06
2022-08-11 17:54:15.8500,-2.85,30.48,-9.91,32.17
2022-08-11 17:54:15.8590,-4.93,49.16,-8.15,50.07
2022-08-11 17:54:15.8700,-5.76,58.1,-1.98,58.41
2022-08-11 17:54:15.8790,-6.58,47.18,1.29,47.65
2022-08-11 17:54:15.8880,-2.18,24.47,1.65,24.62
2022-08-11 17:54:15.8990,5.49,11.26,0.34,12.53
2022-08-11 17:54:15.9100,9.52,5.4,-0.66,10.96
2022-08-11 17:54:15.9180,10.39,2.62,-1.36,10.8
2022-08-11 17:54:15.9330,11.03,0.65,-2.26,11.27
2022-08-11 17:54:15.9380,12.58,-0.33,-1.09,12.63
2022-08-11 17:54:15.9490,13.7,-1.02,1.02,13.77
2022-08-11 17:54:15.9590,12.61,-2.45,3.37,13.28
2022-08-11 17:54:15.9690,9.41,-3.85,6.16,11.88
2022-08-11 17:54:15.9790,5.25,-5.57,7.69,10.85
2022-08-11 17:54:15.9880,0.72,-8.23,6.99,10.82
2022-08-11 17:54:15.9980,-4.05,-11.79,4.13,13.13
2022-08-11 17:54:16.0080,-9.85,-15.46,2.03,18.44
2022-08-11 17:54:16.0180,-16.17,-19.23,4.16,25.46
2022-08-11 17:54:16.0370,-23.7,-22.19,8.84,33.64
2022-08-11 17:54:16.0420,-29.9,-25.75,7.01,40.07
2022-08-11 17:54:16.0480,-27.07,-26.91,-1.61,38.2
2022-08-11 17:54:16.0580,-18.82,-27.24,-14.21,36.02
2022-08-11 17:54:16.0690,-10.53,-20.2,-16.48,28.11
2022-08-11 17:54:16.0780,-7.57,-10.54,-7.52,14.99
2022-08-11 17:54:16.0870,-6.36,-4.61,-2.27,8.17
2022-08-11 17:54:16.0970,-5.1,-2.89,1.39,6.02
2022-08-11 17:54:16.1090,-3.12,-1.24,2.91,4.44
2022-08-11 17:54:16.1170,-0.24,-1.0,3.93,4.06
2022-08-11 17:54:16.1370,2.99,-1.32,3.89,5.08
2022-08-11 17:54:16.1410,5.3,-0.43,2.46,5.85
2022-08-11 17:54:16.1460,6.19,0.57,-0.67,6.25
2022-08-11 17:54:16.1570,5.05,4.34,-4.22,7.88
2022-08-11 17:54:16.1660,-2.71,8.88,0.03,9.28
2022-08-11 17:54:16.1780,-12.98,19.31,2.31,23.38
2022-08-11 17:54:16.1860,-18.83,27.64,8.89,34.6
2022-08-11 17:54:16.1960,-14.59,28.34,13.95,34.79
2022-08-11 17:54:16.2080,-3.95,22.59,9.92,24.98
2022-08-11 17:54:16.2170,6.55,15.43,2.23,16.91
2022-08-11 17:54:16.2400,13.92,12.4,-7.18,19.97
2022-08-11 17:54:16.2420,15.12,12.81,-11.14,22.73
2022-08-11 17:54:16.2450,9.85,13.43,-3.54,17.02
2022-08-11 17:54:16.2560,7.17,12.95,2.63,15.03
2022-08-11 17:54:16.2660,6.84,10.85,5.36,13.9
2022-08-11 17:54:16.2770,6.09,7.32,6.03,11.27
2022-08-11 17:54:16.2870,4.25,2.55,3.44,6.03
2022-08-11 17:54:16.2960,3.87,-1.87,-1.04,4.42
2022-08-11 17:54:16.3050,6.42,-5.15,-5.24,9.75
2022-08-11 17:54:16.3150,8.86,-6.66,-7.07,13.14
2022-08-11 17:54:16.3380,9.73,-6.54,-6.37,13.34
2022-08-11 17:54:16.3400,9.4,-5.91,-3.68,11.69
2022-08-11 17:54:16.3450,8.08,-4.81,-1.63,9.54
2022-08-11 17:54:16.3550,7.02,-4.35,-0.72,8.28
2022-08-11 17:54:16.3650,6.32,-5.1,-0.09,8.12
2022-08-11 17:54:16.3750,5.66,-6.61,-0.21,8.7
2022-08-11 17:54:16.3870,5.01,-8.52,-0.66,9.9
2022-08-11 17:54:16.3950,4.37,-10.62,-1.22,11.54
2022-08-11 17:54:16.4050,3.64,-12.6,-1.69,13.22
2022-08-11 17:54:16.4150,2.42,-14.17,-2.08,14.52
2022-08-11 17:54:16.4250,0.8,-15.17,-2.03,15.32
2022-08-11 17:54:16.4380,-0.7,-15.59,-1.28,15.65
2022-08-11 17:54:16.4440,-2.08,-15.45,0.02,15.58
2022-08-11 17:54:16.4550,-2.94,-14.37,1.93,14.79
2022-08-11 17:54:16.4640,-3.36,-12.39,3.57,13.32
2022-08-11 17:54:16.4760,-3.36,-9.65,4.19,11.04
2022-08-11 17:54:16.4840,-2.79,-6.38,3.53,7.8
2022-08-11 17:54:16.4940,-1.39,-2.72,1.84,3.56
2022-08-11 17:54:16.5060,1.06,1.63,1.48,2.44
2022-08-11 17:54:16.5140,0.23,7.27,0.52,7.29
2022-08-11 17:54:16.5240,0.34,17.57,-7.89,19.26
2022-08-11 17:54:16.5400,1.26,31.02,-7.77,32.0
2022-08-11 17:54:16.5440,1.06,44.01,-2.62,44.1
2022-08-11 17:54:16.5550,-2.05,48.93,0.44,48.97
2022-08-11 17:54:16.5640,-6.0,38.67,1.34,39.15
2022-08-11 17:54:16.5740,-2.08,21.28,0.22,21.38
2022-08-11 17:54:16.5830,4.8,11.36,-0.07,12.33
2022-08-11 17:54:16.5950,7.87,6.96,0.06,10.5
2022-08-11 17:54:16.6030,9.13,4.46,-1.14,10.22
2022-08-11 17:54:16.6140,10.13,2.36,-2.83,10.77
2022-08-11 17:54:16.6250,11.24,0.63,-2.18,11.46
2022-08-11 17:54:16.6400,11.25,-0.91,0.83,11.31
2022-08-11 17:54:16.6430,9.5,-2.48,3.84,10.54
2022-08-11 17:54:16.6540,6.51,-3.76,6.17,9.72
2022-08-11 17:54:16.6640,2.82,-5.35,6.96,9.22
2022-08-11 17:54:16.6730,-0.86,-7.54,6.51,9.99
2022-08-11 17:54:16.6850,-4.93,-10.34,5.45,12.68
2022-08-11 17:54:16.6930,-8.81,-14.1,3.76,17.04
2022-08-11 17:54:16.7040,-13.09,-18.34,2.86,22.71
2022-08-11 17:54:16.7130,-18.44,-21.16,5.33,28.56
2022-08-11 17:54:16.7230,-23.5,-24.63,5.27,34.44
2022-08-11 17:54:16.7390,-22.72,-26.87,0.92,35.2
2022-08-11 17:54:16.7430,-18.02,-26.95,-6.89,33.14
2022-08-11 17:54:16.7530,-11.53,-22.5,-11.51,27.77
2022-08-11 17:54:16.7620,-8.22,-13.36,-7.6,17.43
2022-08-11 17:54:16.7740,-7.26,-5.86,-3.59,9.99
2022-08-11 17:54:16.7830,-4.99,-3.0,-0.64,5.85
2022-08-11 17:54:16.7940,-2.09,-1.87,0.13,2.8
2022-08-11 17:54:16.8020,1.09,-2.15,0.71,2.51
2022-08-11 17:54:16.8120,4.92,-2.26,0.98,5.5
2022-08-11 17:54:16.8220,8.49,-0.73,1.0,8.57
2022-08-11 17:54:16.8410,10.66,1.77,2.01,10.99
2022-08-11 17:54:16.8440,7.27,7.91,1.93,10.91
2022-08-11 17:54:16.8520,-4.32,18.41,5.5,19.69
2022-08-11 17:54:16.8630,-16.68,27.53,11.85,34.3
2022-08-11 17:54:16.8720,-20.65,30.82,12.85,39.26
2022-08-11 17:54:16.8810,-11.57,25.32,7.62,28.86
2022-08-11 17:54:16.8910,2.92,16.04,0.8,16.32
2022-08-11 17:54:16.9010,12.22,9.59,-4.8,16.25
2022-08-11 17:54:16.9130,12.86,7.63,-9.6,17.76
2022-08-11 17:54:16.9210,6.01,7.12,-6.2,11.19
2022-08-11 17:54:16.9410,2.32,7.71,-0.66,8.07
2022-08-11 17:54:16.9450,2.93,7.9,3.75,9.22
2022-08-11 17:54:16.9510,4.67,6.94,6.15,10.38
2022-08-11 17:54:16.9610,4.71,4.3,5.65,8.52
2022-08-11 17:54:16.9720,3.99,0.82,2.23,4.64
2022-08-11 17:54:16.9810,4.87,-2.38,-2.55,5.99
2022-08-11 17:54:16.9910,6.84,-5.05,-6.59,10.75
2022-08-11 17:54:17.0030,9.15,-6.42,-7.41,13.41
2022-08-11 17:54:17.0110,11.02,-6.49,-5.72,14.0
2022-08-11 17:54:17.0210,10.53,-6.0,-3.36,12.57
2022-08-11 17:54:17.0440,8.5,-5.49,-1.75,10.26
2022-08-11 17:54:17.0470,6.96,-5.88,0.15,9.11
2022-08-11 17:54:17.0500,5.81,-7.09,0.98,9.21
2022-08-11 17:54:17.0600,5.36,-8.88,0.56,10.38
2022-08-11 17:54:17.0710,5.17,-10.83,-0.18,12.0
2022-08-11 17:54:17.0820,4.48,-12.66,-0.85,13.45
2022-08-11 17:54:17.0900,3.2,-14.09,-1.66,14.54
2022-08-11 17:54:17.1000,1.24,-14.86,-2.27,15.08
2022-08-11 17:54:17.1100,-0.67,-14.9,-2.14,15.06
2022-08-11 17:54:17.1200,-2.24,-14.0,-1.19,14.22
2022-08-11 17:54:17.1410,-3.01,-12.15,-0.02,12.51
2022-08-11 17:54:17.1430,-3.15,-9.49,1.17,10.06
2022-08-11 17:54:17.1500,-2.8,-5.98,1.82,6.84
2022-08-11 17:54:17.1600,-0.5,-1.25,2.26,2.63
2022-08-11 17:54:17.1710,-0.51,3.3,8.04,8.7
2022-08-11 17:54:17.1790,-2.8,11.34,7.59,13.92
2022-08-11 17:54:17.1900,-3.38,28.39,-2.59,28.7
2022-08-11 17:54:17.1990,-3.36,44.47,-4.34,44.8
2022-08-11 17:54:17.2090,-5.39,52.21,-1.76,52.51
2022-08-11 17:54:17.2200,-11.02,42.82,-1.99,44.26
2022-08-11 17:54:17.2290,-8.62,22.12,-3.66,24.02
2022-08-11 17:54:17.2450,-0.66,10.34,-4.37,11.24
2022-08-11 17:54:17.2490,3.54,5.24,-4.4,7.7
2022-08-11 17:54:17.2590,4.46,2.16,-4.1,6.43
2022-08-11 17:54:17.2690,5.08,0.35,-3.24,6.03
2022-08-11 17:54:17.2800,6.59,-0.64,-1.16,6.72
2022-08-11 17:54:17.2880,8.48,-1.09,1.08,8.61
2022-08-11 17:54:17.2980,9.33,-1.35,2.67,9.79
2022-08-11 17:54:17.3090,8.66,-1.9,3.67,9.59
2022-08-11 17:54:17.3180,7.12,-3.21,4.04,8.79
2022-08-11 17:54:17.3280,4.83,-5.34,3.86,8.16
2022-08-11 17:54:17.3440,1.69,-7.83,3.5,8.74
2022-08-11 17:54:17.3480,-2.04,-10.35,3.3,11.05
2022-08-11 17:54:17.3590,-6.54,-12.7,2.42,14.48
2022-08-11 17:54:17.3690,-10.55,-14.98,2.18,18.45
2022-08-11 17:54:17.3800,-13.48,-17.69,2.6,22.39
2022-08-11 17:54:17.3880,-16.36,-19.34,3.69,25.59
2022-08-11 17:54:17.3980,-17.25,-20.45,3.02,26.92
2022-08-11 17:54:17.4090,-15.83,-21.21,0.33,26.46
2022-08-11 17:54:17.4180,-12.88,-20.68,-2.12,24.45
2022-08-11 17:54:17.4280,-9.97,-18.6,-4.1,21.49
2022-08-11 17:54:17.4430,-7.59,-13.81,-4.41,16.36
2022-08-11 17:54:17.4470,-6.14,-8.77,-3.47,11.25
2022-08-11 17:54:17.4580,-5.45,-3.72,-5.54,8.61
2022-08-11 17:54:17.4680,-4.3,-1.12,-2.59,5.14
2022-08-11 17:54:17.4780,-2.4,-1.11,4.56,5.27
2022-08-11 17:54:17.4870,-1.09,4.37,8.9,9.97
2022-08-11 17:54:17.4990,-0.9,19.18,10.15,21.71
2022-08-11 17:54:17.5090,-5.17,32.47,10.47,34.5
2022-08-11 17:54:17.5170,-12.77,37.99,12.0,41.83
2022-08-11 17:54:17.5270,-12.47,35.73,8.91,38.87
2022-08-11 17:54:17.5410,-0.27,22.25,3.58,22.53
2022-08-11 17:54:17.5470,11.71,7.99,-0.38,14.18
2022-08-11 17:54:17.5570,20.13,-0.73,-9.68,22.34
2022-08-11 17:54:17.5660,22.03,-3.67,-9.27,24.18
2022-08-11 17:54:17.5770,16.42,-0.46,0.04,16.42
2022-08-11 17:54:17.5880,8.69,4.28,1.91,9.87
2022-08-11 17:54:17.5980,3.57,7.21,-0.41,8.05
2022-08-11 17:54:17.6070,1.02,8.37,-0.96,8.48
2022-08-11 17:54:17.6160,-1.06,6.62,0.47,6.72
2022-08-11 17:54:17.6260,-3.97,3.6,2.62,5.96
2022-08-11 17:54:17.6460,-5.55,2.18,4.38,7.39
2022-08-11 17:54:17.6500,-5.06,-0.4,3.29,6.04
2022-08-11 17:54:17.6560,-3.11,-4.03,0.2,5.09
2022-08-11 17:54:17.6660,-0.9,-6.91,-3.06,7.61
2022-08-11 17:54:17.6770,0.91,-9.16,-4.86,10.4
2022-08-11 17:54:17.6860,1.99,-10.8,-5.13,12.12
2022-08-11 17:54:17.6960,2.28,-11.61,-3.02,12.21
2022-08-11 17:54:17.7060,2.15,-11.75,-0.11,11.94
2022-08-11 17:54:17.7150,1.77,-11.71,1.18,11.9
2022-08-11 17:54:17.7260,1.04,-11.99,1.24,12.09
2022-08-11 17:54:17.7430,0.18,-12.48,1.02,12.52
2022-08-11 17:54:17.7460,-0.6,-12.87,1.35,12.95
2022-08-11 17:54:17.7550,-1.22,-13.02,2.5,13.31
2022-08-11 17:54:17.7650,-1.93,-12.57,3.93,13.31
2022-08-11 17:54:17.7770,-2.35,-11.31,4.7,12.47
2022-08-11 17:54:17.7860,-2.28,-9.92,4.64,11.18
2022-08-11 17:54:17.7950,-1.78,-8.74,4.63,10.04
2022-08-11 17:54:17.8050,-1.03,-7.41,4.55,8.75
2022-08-11 17:54:17.8170,-0.06,-4.98,4.34,6.6
2022-08-11 17:54:17.8260,0.43,-0.05,3.41,3.43
2022-08-11 17:54:17.8470,1.38,10.53,-3.5,11.18
2022-08-11 17:54:17.8490,1.57,27.98,-5.94,28.64
2022-08-11 17:54:17.8550,-2.26,46.04,1.57,46.12
2022-08-11 17:54:17.8640,-9.63,52.55,6.9,53.86
2022-08-11 17:54:17.8760,-15.09,38.42,6.45,41.77
2022-08-11 17:54:17.8840,-11.64,19.24,1.06,22.51
2022-08-11 17:54:17.8940,-5.12,8.83,-3.26,10.71
2022-08-11 17:54:17.9040,-0.3,3.47,-4.67,5.82
2022-08-11 17:54:17.9140,3.2,0.39,-5.82,6.65
2022-08-11 17:54:17.9250,6.1,-0.72,-6.67,9.06
2022-08-11 17:54:17.9450,8.67,-0.15,-4.78,9.9
2022-08-11 17:54:17.9480,10.31,1.02,-1.51,10.46
2022-08-11 17:54:17.9540,10.42,1.15,1.48,10.58
2022-08-11 17:54:17.9640,9.18,-0.29,3.97,10.0
2022-08-11 17:54:17.9750,6.83,-2.27,5.95,9.33
2022-08-11 17:54:17.9840,4.04,-4.16,6.93,9.03
2022-08-11 17:54:17.9950,1.12,-6.01,7.32,9.53
2022-08-11 17:54:18.0030,-1.62,-7.8,7.73,11.1
2022-08-11 17:54:18.0130,-3.86,-9.22,8.44,13.08
2022-08-11 17:54:18.0250,-5.52,-10.22,9.15,14.78
2022-08-11 17:54:18.0330,-6.5,-11.09,9.6,16.04
2022-08-11 17:54:18.0460,-6.84,-12.17,9.35,16.8
2022-08-11 17:54:18.0530,-7.27,-13.28,8.27,17.25
2022-08-11 17:54:18.0640,-8.25,-14.39,5.55,17.49
2022-08-11 17:54:18.0730,-8.79,-15.69,3.16,18.25
2022-08-11 17:54:18.0840,-8.19,-16.21,2.79,18.37
2022-08-11 17:54:18.0930,-7.06,-15.29,2.81,17.07
2022-08-11 17:54:18.1030,-7.23,-11.66,0.01,13.71
2022-08-11 17:54:18.1130,-7.54,-5.53,-1.75,9.51
2022-08-11 17:54:18.1250,-5.44,-1.4,1.72,5.87
2022-08-11 17:54:18.1330,-2.44,-1.63,9.07,9.53
2022-08-11 17:54:18.1460,-1.3,0.13,12.4,12.46
2022-08-11 17:54:18.1520,0.62,6.43,15.22,16.53
2022-08-11 17:54:18.1630,2.0,16.37,16.44,23.28
2022-08-11 17:54:18.1720,-1.9,27.84,15.09,31.72
2022-08-11 17:54:18.1820,-9.36,38.04,5.96,39.62
2022-08-11 17:54:18.1940,-9.65,40.75,-6.01,42.3
2022-08-11 17:54:18.2040,-0.54,23.73,-3.82,24.04
2022-08-11 17:54:18.2120,4.87,8.07,4.68,10.52
2022-08-11 17:54:18.2220,5.52,1.8,6.78,8.92
2022-08-11 17:54:18.2330,4.28,-0.53,5.65,7.1
2022-08-11 17:54:18.2460,3.08,-1.92,3.76,5.22
2022-08-11 17:54:18.2520,3.22,-3.13,1.96,4.89
2022-08-11 17:54:18.2620,5.88,-3.48,2.46,7.26
2022-08-11 17:54:18.2720,7.22,-0.82,5.98,9.41
2022-08-11 17:54:18.2820,4.94,1.92,8.11,9.68
2022-08-11 17:54:18.2910,3.15,2.73,8.11,9.11
2022-08-11 17:54:18.3010,2.02,3.28,7.66,8.57
2022-08-11 17:54:18.3130,0.65,4.41,6.98,8.28
2022-08-11 17:54:18.3210,-0.7,5.98,5.87,8.4
2022-08-11 17:54:18.3310,-0.5,7.16,6.54,9.71
2022-08-11 17:54:18.3470,1.68,7.91,7.3,10.89
2022-08-11 17:54:18.3500,4.46,8.39,6.26,11.37
2022-08-11 17:54:18.3620,7.4,7.8,4.71,11.73
2022-08-11 17:54:18.3720,9.3,5.98,4.34,11.87
2022-08-11 17:54:18.3810,8.67,3.53,5.12,10.66
2022-08-11 17:54:18.3920,6.64,1.01,6.08,9.05
2022-08-11 17:54:18.4010,4.32,-1.32,6.09,7.58
2022-08-11 17:54:18.4100,2.15,-3.36,5.67,6.93
2022-08-11 17:54:18.4220,0.77,-5.15,5.08,7.27
2022-08-11 17:54:18.4310,0.26,-6.4,4.32,7.72
2022-08-11 17:54:18.4490,0.31,-6.86,3.63,7.76
2022-08-11 17:54:18.4520,0.44,-6.63,3.49,7.5
2022-08-11 17:54:18.4600,0.51,-6.28,3.82,7.36
2022-08-11 17:54:18.4710,0.64,-6.17,4.38,7.59
2022-08-11 17:54:18.4810,0.9,-6.39,5.06,8.2
2022-08-11 17:54:18.4920,1.28,-6.87,5.88,9.13
2022-08-11 17:54:18.5000,1.6,-7.5,6.67,10.16
2022-08-11 17:54:18.5100,1.76,-8.11,7.21,10.99
2022-08-11 17:54:18.5200,1.69,-8.51,7.41,11.4
2022-08-11 17:54:18.5300,1.36,-8.74,7.12,11.35
2022-08-11 17:54:18.5490,0.87,-9.2,6.19,11.12
2022-08-11 17:54:18.5510,0.28,-10.04,4.53,11.01
2022-08-11 17:54:18.5600,-0.37,-10.86,1.91,11.03
2022-08-11 17:54:18.5700,-0.79,-10.57,-2.68,10.93
2022-08-11 17:54:18.5800,-0.31,-3.47,-7.41,8.18
2022-08-11 17:54:18.5900,1.76,2.27,-2.1,3.55
2022-08-11 17:54:18.5990,2.78,4.93,3.26,6.53
2022-08-11 17:54:18.6090,3.86,14.02,6.07,15.75
2022-08-11 17:54:18.6200,3.67,24.66,8.61,26.37
2022-08-11 17:54:18.6290,0.74,32.16,9.3,33.48
2022-08-11 17:54:18.6530,0.54,30.87,7.57,31.78
2022-08-11 17:54:18.6550,5.77,20.66,4.87,21.99
2022-08-11 17:54:18.6590,12.85,12.11,1.98,17.76
2022-08-11 17:54:18.6690,17.83,7.59,-1.95,19.47
2022-08-11 17:54:18.6790,18.61,6.21,-2.43,19.76
2022-08-11 17:54:18.6900,16.72,6.23,1.27,17.88
2022-08-11 17:54:18.7000,14.51,5.62,4.25,16.13
2022-08-11 17:54:18.7100,12.06,4.51,5.8,14.12
2022-08-11 17:54:18.7190,8.81,3.61,7.35,12.02
2022-08-11 17:54:18.7290,5.3,2.38,8.32,10.14
2022-08-11 17:54:18.7510,1.7,-0.03,7.66,7.84
2022-08-11 17:54:18.7540,-2.28,-3.66,5.6,7.06
2022-08-11 17:54:18.7580,-5.71,-7.63,4.56,10.56
2022-08-11 17:54:18.7690,-8.37,-11.99,5.29,15.54
2022-08-11 17:54:18.7780,-11.47,-15.64,5.62,20.19
2022-08-11 17:54:18.7890,-16.37,-17.59,8.29,25.41
2022-08-11 17:54:18.7980,-22.09,-21.11,8.9,31.82
2022-08-11 17:54:18.8100,-24.49,-24.88,4.44,35.19
2022-08-11 17:54:18.8200,-21.79,-26.18,-7.68,34.91
2022-08-11 17:54:18.8280,-13.06,-24.73,-20.2,34.49
2022-08-11 17:54:18.8370,-2.6,-16.58,-17.03,23.9
2022-08-11 17:54:18.8510,1.34,-9.18,-9.15,13.03
2022-08-11 17:54:18.8580,1.88,-5.74,-5.91,8.45
2022-08-11 17:54:18.8680,1.9,-6.8,-0.71,7.09
2022-08-11 17:54:18.8790,2.87,-7.94,4.27,9.46
2022-08-11 17:54:18.8870,3.8,-6.66,7.26,10.55
2022-08-11 17:54:18.8970,4.82,-1.93,6.41,8.24
2022-08-11 17:54:18.9090,3.33,7.71,3.12,8.95
2022-08-11 17:54:18.9180,-4.18,21.29,2.59,21.85
2022-08-11 17:54:18.9280,-12.75,32.37,2.01,34.84
2022-08-11 17:54:18.9370,-13.69,35.34,0.07,37.89
2022-08-11 17:54:18.9510,-5.99,27.39,-3.32,28.23
2022-08-11 17:54:18.9570,1.97,10.38,-4.12,11.34
2022-08-11 17:54:18.9670,5.79,0.19,-0.49,5.81
2022-08-11 17:54:18.9770,7.28,-2.64,3.34,8.43
2022-08-11 17:54:18.9880,7.78,-0.08,6.05,9.85
2022-08-11 17:54:18.9970,8.03,4.52,8.9,12.81
2022-08-11 17:54:19.0080,8.04,7.73,9.57,14.69
2022-08-11 17:54:19.0180,8.84,11.43,5.98,15.63
2022-08-11 17:54:19.0270,10.23,14.61,1.69,17.91
2022-08-11 17:54:19.0380,10.84,15.45,0.22,18.87
2022-08-11 17:54:19.0500,9.97,11.77,-0.16,15.42
2022-08-11 17:54:19.0560,8.98,5.83,-0.89,10.74
2022-08-11 17:54:19.0670,7.61,0.62,-1.94,7.87
2022-08-11 17:54:19.0770,5.36,-2.91,-4.51,7.58
2022-08-11 17:54:19.0870,3.0,-4.87,-5.94,8.24
2022-08-11 17:54:19.0960,2.57,-5.49,-5.1,7.92
2022-08-11 17:54:19.1060,5.04,-5.32,-3.27,8.02
2022-08-11 17:54:19.1160,8.11,-5.01,-1.17,9.6
2022-08-11 17:54:19.1270,11.15,-5.45,2.08,12.58
2022-08-11 17:54:19.1370,13.24,-6.12,3.89,15.09
2022-08-11 17:54:19.1500,13.57,-6.6,3.01,15.38
2022-08-11 17:54:19.1560,13.14,-8.33,0.43,15.56
2022-08-11 17:54:19.1660,11.82,-10.55,-1.72,15.93
2022-08-11 17:54:19.1770,9.65,-12.32,-2.2,15.8
2022-08-11 17:54:19.1860,6.89,-13.4,-1.88,15.18
2022-08-11 17:54:19.1950,3.82,-13.64,-1.58,14.25
2022-08-11 17:54:19.2050,1.14,-13.44,-1.86,13.61
2022-08-11 17:54:19.2150,-0.63,-12.99,-1.86,13.13
2022-08-11 17:54:19.2250,-1.74,-12.07,-1.1,12.24
2022-08-11 17:54:19.2360,-2.59,-10.46,0.59,10.79
2022-08-11 17:54:19.2510,-3.49,-8.14,3.03,9.36
2022-08-11 17:54:19.2550,-4.7,-4.89,4.68,8.24
2022-08-11 17:54:19.2650,-3.46,0.77,5.83,6.82
2022-08-11 17:54:19.2750,-4.24,5.65,8.86,11.33
2022-08-11 17:54:19.2860,-6.21,15.34,1.06,16.58
2022-08-11 17:54:19.2960,-7.21,33.34,-11.98,36.15
2022-08-11 17:54:19.3060,-6.46,46.49,-11.12,48.23
2022-08-11 17:54:19.3160,-5.79,46.54,-6.4,47.33
2022-08-11 17:54:19.3240,-2.28,28.7,-3.24,28.97
2022-08-11 17:54:19.3340,4.74,13.25,0.24,14.07
2022-08-11 17:54:19.3530,10.2,7.62,2.09,12.9
2022-08-11 17:54:19.3560,13.02,6.22,2.73,14.68
2022-08-11 17:54:19.3640,15.33,6.05,2.15,16.62
2022-08-11 17:54:19.3740,17.9,6.28,0.52,18.97
2022-08-11 17:54:19.3840,19.08,6.55,-1.13,20.2
2022-08-11 17:54:19.3940,16.87,6.16,-0.52,17.96
2022-08-11 17:54:19.4030,12.1,5.34,1.78,13.34
2022-08-11 17:54:19.4140,6.71,4.3,4.46,9.13
2022-08-11 17:54:19.4230,1.46,2.56,6.47,7.1
2022-08-11 17:54:19.4330,-2.7,-0.08,6.99,7.49
2022-08-11 17:54:19.4560,-6.01,-3.42,6.12,9.23
2022-08-11 17:54:19.4580,-8.64,-7.46,5.04,12.47
2022-08-11 17:54:19.4630,-10.72,-11.77,4.84,16.63
2022-08-11 17:54:19.4740,-13.65,-15.14,8.48,22.07
2022-08-11 17:54:19.4840,-18.88,-19.09,12.96,29.81
2022-08-11 17:54:19.4950,-23.78,-23.05,11.27,34.98
2022-08-11 17:54:19.5030,-24.93,-25.96,2.76,36.09
2022-08-11 17:54:19.5130,-21.3,-28.91,-9.69,37.19
2022-08-11 17:54:19.5240,-12.43,-28.44,-22.94,38.59
2022-08-11 17:54:19.5340,-6.73,-18.59,-17.8,26.6
2022-08-11 17:54:19.5550,-7.22,-8.92,-4.24,12.23
2022-08-11 17:54:19.5570,-7.34,-4.66,-0.04,8.69
2022-08-11 17:54:19.5630,-7.01,-3.33,2.26,8.08
2022-08-11 17:54:19.5730,-4.64,-2.36,4.89,7.14
2022-08-11 17:54:19.5830,-1.16,-2.26,6.79,7.24
2022-08-11 17:54:19.5940,3.48,-1.17,7.8,8.62
2022-08-11 17:54:19.6020,7.71,1.86,5.83,9.84
2022-08-11 17:54:19.6130,9.91,5.72,4.06,12.14
2022-08-11 17:54:19.6240,7.4,10.4,0.27,12.76
2022-08-11 17:54:19.6320,-2.74,15.78,-0.4,16.02
2022-08-11 17:54:19.6420,-12.71,20.67,3.32,24.49
2022-08-11 17:54:19.6540,-14.26,21.48,6.54,26.59
2022-08-11 17:54:19.6620,-6.11,17.25,7.58,19.8
2022-08-11 17:54:19.6720,2.58,11.54,5.14,12.89
2022-08-11 17:54:19.6820,7.91,7.34,1.84,10.94
2022-08-11 17:54:19.6930,10.3,6.36,-0.81,12.13
2022-08-11 17:54:19.7030,10.06,8.58,-1.52,13.3
2022-08-11 17:54:19.7130,9.11,11.8,1.27,14.96
2022-08-11 17:54:19.7230,9.7,12.67,4.38,16.54
2022-08-11 17:54:19.7340,11.61,11.98,5.5,17.56
2022-08-11 17:54:19.7410,13.56,10.55,4.39,17.73
2022-08-11 17:54:19.7520,13.31,7.46,0.68,15.27
2022-08-11 17:54:19.7610,10.09,2.99,-3.58,11.11
2022-08-11 17:54:19.7710,6.2,-0.97,-5.4,8.27
2022-08-11 17:54:19.7820,4.1,-2.92,-3.99,6.42
2022-08-11 17:54:19.7910,4.88,-3.82,-2.76,6.78
2022-08-11 17:54:19.8020,7.11,-4.68,-1.61,8.66
2022-08-11 17:54:19.8110,9.0,-5.38,-0.73,10.51
2022-08-11 17:54:19.8220,9.75,-5.9,0.24,11.39
2022-08-11 17:54:19.8300,9.65,-6.4,1.09,11.63
2022-08-11 17:54:19.8410,9.49,-7.77,1.89,12.4
2022-08-11 17:54:19.8550,8.9,-9.79,2.34,13.43
2022-08-11 17:54:19.8610,7.68,-11.78,2.02,14.2
2022-08-11 17:54:19.8710,5.94,-13.48,0.95,14.76
2022-08-11 17:54:19.8820,3.67,-14.74,-0.46,15.19
2022-08-11 17:54:19.8900,1.12,-15.34,-1.4,15.44
2022-08-11 17:54:19.9000,-1.04,-15.39,-1.73,15.52
2022-08-11 17:54:19.9100,-2.46,-14.88,-1.58,15.16
2022-08-11 17:54:19.9210,-3.16,-13.61,-0.25,13.97
2022-08-11 17:54:19.9300,-3.54,-11.37,1.66,12.02
2022-08-11 17:54:19.9410,-3.53,-7.63,2.74,8.84
2022-08-11 17:54:19.9550,-1.21,-2.28,3.02,3.97
2022-08-11 17:54:19.9590,-0.51,2.73,5.84,6.46
2022-08-11 17:54:19.9700,-1.91,11.41,0.34,11.57
2022-08-11 17:54:19.9800,-2.07,28.24,-10.92,30.34
2022-08-11 17:54:19.9910,-2.14,44.58,-8.15,45.36
2022-08-11 17:54:19.9990,-3.09,51.69,-2.17,51.82
2022-08-11 17:54:20.0100,-4.66,39.65,-0.28,39.92
2022-08-11 17:54:20.0210,-0.02,19.44,0.55,19.44
2022-08-11 17:54:20.0290,6.42,9.14,1.02,11.21
2022-08-11 17:54:20.0390,9.21,5.57,1.08,10.81
2022-08-11 17:54:20.0560,9.38,4.34,0.72,10.36
2022-08-11 17:54:20.0580,9.09,3.7,-0.26,9.81
2022-08-11 17:54:20.0690,9.28,2.9,-0.25,9.72
2022-08-11 17:54:20.0790,9.02,2.22,1.57,9.42
2022-08-11 17:54:20.0900,7.95,0.94,3.66,8.8
2022-08-11 17:54:20.0990,5.87,-0.78,5.28,7.93
2022-08-11 17:54:20.1100,2.93,-2.91,5.59,6.94
2022-08-11 17:54:20.1200,-0.93,-5.68,4.6,7.36
2022-08-11 17:54:20.1290,-5.58,-8.75,3.55,10.96
2022-08-11 17:54:20.1400,-11.02,-12.98,2.84,17.26
2022-08-11 17:54:20.1540,-17.18,-16.42,6.19,24.55
2022-08-11 17:54:20.1580,-24.57,-20.89,8.51,33.35
2022-08-11 17:54:20.1680,-28.23,-26.81,2.61,39.01
