time,ax,ay,az,atotal
2022-08-11 17:49:32.7190,0.17,-0.42,-0.12,0.46
2022-08-11 17:49:32.7200,0.15,-0.33,-0.28,0.45
2022-08-11 17:49:32.7260,0.09,-0.02,-0.17,0.19
2022-08-11 17:49:32.7470,-0.04,0.18,0.14,0.23
2022-08-11 17:49:32.7480,-0.17,0.21,0.41,0.49
2022-08-11 17:49:32.7560,-0.28,0.16,0.52,0.61
2022-08-11 17:49:32.7660,-0.32,0.08,0.51,0.6
2022-08-11 17:49:32.7770,-0.3,-0.03,0.35,0.46
2022-08-11 17:49:32.7860,-0.29,-0.14,0.13,0.34
2022-08-11 17:49:32.7970,-0.25,-0.27,-0.08,0.37
2022-08-11 17:49:32.8060,-0.19,-0.33,-0.15,0.4
2022-08-11 17:49:32.8160,-0.21,-0.39,-0.15,0.46
2022-08-11 17:49:32.8260,-0.29,-0.46,-0.19,0.57
2022-08-11 17:49:32.8410,-0.35,-0.49,-0.26,0.65
2022-08-11 17:49:32.8460,-0.31,-0.54,-0.39,0.73
2022-08-11 17:49:32.8560,-0.3,-0.58,-0.52,0.83
2022-08-11 17:49:32.8650,-0.25,-0.63,-0.68,0.96
2022-08-11 17:49:32.8750,-0.16,-0.73,-0.91,1.17
2022-08-11 17:49:32.8850,-0.15,-0.89,-1.08,1.4
2022-08-11 17:49:32.8960,-0.22,-1.09,-1.26,1.68
2022-08-11 17:49:32.9060,-0.2,-1.13,-1.51,1.89
2022-08-11 17:49:32.9160,-0.34,-1.08,-1.8,2.12
2022-08-11 17:49:32.9250,-0.57,-0.82,-2.03,2.26
2022-08-11 17:49:32.9420,-0.69,-0.51,-2.1,2.26
2022-08-11 17:49:32.9440,-0.76,-0.32,-2.16,2.31
2022-08-11 17:49:32.9560,-0.75,-0.3,-2.22,2.36
2022-08-11 17:49:32.9650,-0.68,-0.38,-2.3,2.42
2022-08-11 17:49:32.9740,-0.55,-0.49,-2.39,2.5
2022-08-11 17:49:32.9840,-0.39,-0.61,-2.44,2.54
2022-08-11 17:49:32.9940,-0.28,-0.65,-2.48,2.57
2022-08-11 17:49:33.0050,-0.3,-0.6,-2.37,2.46
2022-08-11 17:49:33.0150,-0.47,-0.56,-2.23,2.34
2022-08-11 17:49:33.0240,-0.74,-0.6,-2.05,2.26
2022-08-11 17:49:33.0410,-2.02,-0.66,-0.06,2.12
2022-08-11 17:49:33.0440,-2.11,-0.37,1.65,2.7
2022-08-11 17:49:33.0540,-1.18,0.27,0.74,1.41
2022-08-11 17:49:33.0640,-0.79,0.03,0.46,0.91
2022-08-11 17:49:33.0750,-1.37,-0.5,0.46,1.52
2022-08-11 17:49:33.0830,-1.35,-0.3,0.43,1.44
2022-08-11 17:49:33.0940,-1.19,-0.21,1.04,1.59
2022-08-11 17:49:33.1030,-0.76,-0.39,0.99,1.3
2022-08-11 17:49:33.1130,-0.51,-0.58,0.56,0.95
2022-08-11 17:49:33.1240,-0.45,-0.48,-0.12,0.66
2022-08-11 17:49:33.1420,-0.14,0.0,-0.73,0.74
2022-08-11 17:49:33.1460,0.11,0.46,-0.62,0.77
2022-08-11 17:49:33.1540,0.37,0.27,-0.72,0.85
2022-08-11 17:49:33.1630,0.33,-1.46,-1.18,1.9
2022-08-11 17:49:33.1730,0.0,-1.41,0.22,1.42
2022-08-11 17:49:33.1840,-0.04,0.45,0.69,0.82
2022-08-11 17:49:33.1930,-0.02,1.78,0.74,1.92
2022-08-11 17:49:33.2030,-0.08,0.99,-0.1,0.99
2022-08-11 17:49:33.2130,0.27,0.05,-0.1,0.29
2022-08-11 17:49:33.2240,0.26,-0.19,0.07,0.32
2022-08-11 17:49:33.2420,0.34,0.07,-0.46,0.57
2022-08-11 17:49:33.2460,0.5,0.53,-0.81,1.08
2022-08-11 17:49:33.2520,0.61,0.72,-1.56,1.82
2022-08-11 17:49:33.2630,0.35,0.65,-2.51,2.61
2022-08-11 17:49:33.2720,0.14,0.25,-2.7,2.71
2022-08-11 17:49:33.2830,1.48,0.72,-1.84,2.46
2022-08-11 17:49:33.2930,1.41,1.81,-1.08,2.53
2022-08-11 17:49:33.3030,1.17,1.01,-1.85,2.41
2022-08-11 17:49:33.3120,1.11,1.78,-1.95,2.86
2022-08-11 17:49:33.3220,0.35,1.84,-0.98,2.11
2022-08-11 17:49:33.3310,0.07,1.38,-0.6,1.5
2022-08-11 17:49:33.3450,-0.15,0.84,-0.26,0.89
2022-08-11 17:49:33.3550,-0.27,0.64,0.12,0.7
2022-08-11 17:49:33.3620,-0.19,0.44,0.21,0.52
2022-08-11 17:49:33.3710,-0.09,0.39,0.11,0.41
2022-08-11 17:49:33.3820,-0.07,0.16,-0.04,0.17
2022-08-11 17:49:33.3920,-0.07,-0.34,-0.18,0.39
2022-08-11 17:49:33.4020,-0.17,-0.53,-0.08,0.56
2022-08-11 17:49:33.4110,-0.14,-0.52,0.1,0.54
2022-08-11 17:49:33.4220,0.08,-0.55,0.2,0.59
2022-08-11 17:49:33.4320,0.43,-0.61,0.23,0.78
2022-08-11 17:49:33.4440,0.82,-0.59,0.48,1.11
2022-08-11 17:49:33.4500,1.04,-0.59,0.65,1.36
2022-08-11 17:49:33.4620,0.97,-0.75,0.89,1.51
2022-08-11 17:49:33.4710,0.84,-1.34,0.98,1.86
2022-08-11 17:49:33.4810,0.61,-1.81,1.09,2.19
2022-08-11 17:49:33.4900,0.43,-2.04,1.26,2.43
2022-08-11 17:49:33.5000,0.27,-2.33,1.55,2.81
2022-08-11 17:49:33.5100,0.29,-2.6,1.85,3.2
2022-08-11 17:49:33.5210,0.38,-2.37,2.21,3.26
2022-08-11 17:49:33.5300,0.61,-2.08,2.38,3.21
2022-08-11 17:49:33.5450,0.86,-1.59,2.44,3.03
2022-08-11 17:49:33.5500,0.91,-0.88,2.55,2.84
2022-08-11 17:49:33.5610,0.7,-0.84,2.44,2.67
2022-08-11 17:49:33.5710,0.33,-1.29,2.46,2.79
2022-08-11 17:49:33.5810,-0.11,-1.36,2.67,2.99
2022-08-11 17:49:33.5910,-0.29,-1.34,2.92,3.22
2022-08-11 17:49:33.6000,-0.34,-0.91,3.19,3.33
2022-08-11 17:49:33.6090,-0.3,-0.56,3.09,3.15
2022-08-11 17:49:33.6210,-0.14,-0.61,2.63,2.7
2022-08-11 17:49:33.6290,-0.2,-0.66,2.47,2.56
2022-08-11 17:49:33.6440,-0.42,-0.6,2.6,2.7
2022-08-11 17:49:33.6500,-0.59,-0.3,2.59,2.67
2022-08-11 17:49:33.6590,-0.4,-0.15,2.34,2.37
2022-08-11 17:49:33.6700,-0.13,0.12,2.25,2.25
2022-08-11 17:49:33.6790,0.19,0.44,2.21,2.26
2022-08-11 17:49:33.6900,0.52,0.75,2.05,2.24
2022-08-11 17:49:33.6990,0.54,1.04,1.94,2.26
2022-08-11 17:49:33.7090,0.39,1.12,1.86,2.2
2022-08-11 17:49:33.7200,0.04,1.04,1.69,1.98
2022-08-11 17:49:33.7280,-0.12,0.68,1.5,1.65
2022-08-11 17:49:33.7460,-0.14,0.85,1.61,1.82
2022-08-11 17:49:33.7500,0.22,0.98,1.55,1.84
2022-08-11 17:49:33.7580,0.86,1.2,1.47,2.08
2022-08-11 17:49:33.7690,1.33,1.72,1.41,2.59
2022-08-11 17:49:33.7790,1.69,1.83,1.21,2.76
2022-08-11 17:49:33.7880,1.74,1.6,0.98,2.55
2022-08-11 17:49:33.7980,1.43,1.06,0.78,1.94
2022-08-11 17:49:33.8090,1.08,0.04,0.57,1.22
2022-08-11 17:49:33.8190,1.04,-0.35,0.54,1.22
2022-08-11 17:49:33.8280,1.38,0.12,0.62,1.51
2022-08-11 17:49:33.8450,1.81,0.72,0.51,2.01
2022-08-11 17:49:33.8490,1.88,1.31,0.46,2.33
2022-08-11 17:49:33.8590,1.85,1.39,0.17,2.32
2022-08-11 17:49:33.8690,1.6,1.45,-0.09,2.16
2022-08-11 17:49:33.8770,1.18,1.68,-0.47,2.1
2022-08-11 17:49:33.8870,0.89,2.51,-0.74,2.76
2022-08-11 17:49:33.8970,0.45,3.63,-0.92,3.77
2022-08-11 17:49:33.9080,-0.07,4.56,-1.23,4.72
2022-08-11 17:49:33.9180,-0.5,4.84,-1.77,5.17
2022-08-11 17:49:33.9280,-0.97,5.09,-2.1,5.59
2022-08-11 17:49:33.9550,-1.29,4.94,-2.25,5.57
2022-08-11 17:49:33.9590,-1.47,4.7,-2.27,5.42
2022-08-11 17:49:33.9630,-1.48,4.31,-2.33,5.11
2022-08-11 17:49:33.9670,-1.47,3.82,-2.3,4.69
2022-08-11 17:49:33.9770,-1.39,3.4,-2.1,4.23
2022-08-11 17:49:33.9860,-1.52,2.57,-1.96,3.57
2022-08-11 17:49:33.9960,-1.75,1.22,-1.82,2.8
2022-08-11 17:49:34.0060,-1.64,0.25,-1.66,2.34
2022-08-11 17:49:34.0160,-1.09,-0.25,-1.49,1.86
2022-08-11 17:49:34.0260,-0.48,-0.6,-1.22,1.44
2022-08-11 17:49:34.0460,0.04,-1.03,-0.87,1.34
2022-08-11 17:49:34.0500,0.6,-1.25,-0.49,1.47
2022-08-11 17:49:34.0560,1.13,-1.46,-0.23,1.86
2022-08-11 17:49:34.0660,1.51,-1.82,-0.14,2.36
2022-08-11 17:49:34.0760,1.66,-2.36,-0.06,2.88
2022-08-11 17:49:34.0860,1.41,-2.48,0.21,2.86
2022-08-11 17:49:34.0960,1.21,-2.24,0.55,2.6
2022-08-11 17:49:34.1070,1.0,-1.82,0.72,2.19
2022-08-11 17:49:34.1170,0.81,-1.28,0.8,1.71
2022-08-11 17:49:34.1270,0.76,-1.03,0.7,1.45
2022-08-11 17:49:34.1360,0.74,-0.95,0.59,1.34
2022-08-11 17:49:34.1480,0.59,-0.83,0.68,1.22
2022-08-11 17:49:34.1570,0.35,-0.64,0.79,1.07
2022-08-11 17:49:34.1660,0.21,-0.23,0.8,0.85
2022-08-11 17:49:34.1750,0.03,0.29,0.75,0.8
2022-08-11 17:49:34.1850,-0.22,0.52,0.67,0.87
2022-08-11 17:49:34.1950,-0.51,0.56,0.64,0.99
2022-08-11 17:49:34.2060,-0.64,0.49,0.63,1.02
2022-08-11 17:49:34.2150,-0.5,0.35,0.55,0.82
2022-08-11 17:49:34.2250,-0.3,0.31,0.46,0.63
2022-08-11 17:49:34.2350,-0.06,0.16,0.32,0.36
2022-08-11 17:49:34.2470,-0.06,-0.08,0.36,0.37
2022-08-11 17:49:34.2560,-0.17,-0.3,0.43,0.55
2022-08-11 17:49:34.2640,-0.26,-0.36,0.45,0.63
2022-08-11 17:49:34.2740,-0.27,-0.34,0.44,0.61
2022-08-11 17:49:34.2850,-0.29,-0.37,0.45,0.65
2022-08-11 17:49:34.2950,-0.22,-0.53,0.56,0.8
2022-08-11 17:49:34.3040,0.03,-0.67,0.6,0.89
2022-08-11 17:49:34.3140,0.15,-0.72,0.6,0.94
2022-08-11 17:49:34.3250,0.3,-0.71,0.5,0.91
2022-08-11 17:49:34.3340,0.42,-0.56,0.37,0.79
2022-08-11 17:49:34.3500,0.35,-0.39,0.34,0.62
2022-08-11 17:49:34.3550,0.18,-0.27,0.36,0.48
2022-08-11 17:49:34.3640,-0.06,-0.2,0.45,0.49
2022-08-11 17:49:34.3740,-0.18,-0.27,0.55,0.63
2022-08-11 17:49:34.3850,-0.2,-0.58,0.46,0.76
2022-08-11 17:49:34.3930,-0.14,-0.96,0.32,1.02
2022-08-11 17:49:34.4030,0.1,-1.04,0.28,1.08
2022-08-11 17:49:34.4140,0.37,-0.75,0.27,0.87
2022-08-11 17:49:34.4230,0.39,-0.6,0.29,0.77
2022-08-11 17:49:34.4330,0.16,-0.68,0.4,0.8
2022-08-11 17:49:34.4470,-0.14,-0.93,0.54,1.08
2022-08-11 17:49:34.4540,-0.19,-1.3,0.65,1.46
2022-08-11 17:49:34.4630,-0.17,-1.82,0.73,1.96
2022-08-11 17:49:34.4730,-0.08,-2.12,0.88,2.29
2022-08-11 17:49:34.4840,0.16,-1.78,0.95,2.02
2022-08-11 17:49:34.4930,0.24,-1.39,0.91,1.67
2022-08-11 17:49:34.5030,0.16,-1.38,0.78,1.59
2022-08-11 17:49:34.5140,0.22,-1.4,0.63,1.55
2022-08-11 17:49:34.5240,0.39,-1.03,0.54,1.22
2022-08-11 17:49:34.5320,0.49,-0.42,0.52,0.82
2022-08-11 17:49:34.5490,0.54,0.04,0.55,0.77
2022-08-11 17:49:34.5540,0.56,0.76,0.56,1.09
2022-08-11 17:49:34.5620,0.44,1.42,0.54,1.58
2022-08-11 17:49:34.5730,0.21,1.49,0.42,1.56
2022-08-11 17:49:34.5820,0.1,1.31,0.17,1.32
2022-08-11 17:49:34.5910,0.1,1.31,-0.01,1.31
2022-08-11 17:49:34.6020,0.25,1.4,-0.05,1.42
2022-08-11 17:49:34.6130,0.32,1.64,-0.06,1.67
2022-08-11 17:49:34.6220,0.15,1.38,-0.08,1.39
2022-08-11 17:49:34.6320,-0.02,0.82,-0.1,0.82
2022-08-11 17:49:34.6480,-0.09,0.26,-0.16,0.31
2022-08-11 17:49:34.6530,-0.06,-0.35,-0.31,0.47
2022-08-11 17:49:34.6610,0.05,-0.72,-0.32,0.78
2022-08-11 17:49:34.6710,0.25,-0.61,-0.02,0.65
2022-08-11 17:49:34.6820,0.39,-0.04,0.29,0.48
2022-08-11 17:49:34.6920,0.45,0.2,0.24,0.54
2022-08-11 17:49:34.7010,0.36,0.09,0.01,0.37
2022-08-11 17:49:34.7120,0.31,-0.08,-0.07,0.32
2022-08-11 17:49:34.7220,0.17,-0.1,0.21,0.28
2022-08-11 17:49:34.7310,0.06,0.01,0.44,0.44
2022-08-11 17:49:34.7500,0.04,0.22,0.44,0.49
2022-08-11 17:49:34.7550,-0.02,0.46,0.34,0.57
2022-08-11 17:49:34.7620,-0.18,0.53,0.25,0.61
2022-08-11 17:49:34.7710,-0.36,0.46,0.25,0.63
2022-08-11 17:49:34.7800,-0.52,0.46,0.39,0.79
2022-08-11 17:49:34.7910,-0.39,0.75,0.53,0.99
2022-08-11 17:49:34.8010,-0.17,1.29,0.57,1.42
2022-08-11 17:49:34.8110,0.0,1.44,0.38,1.48
2022-08-11 17:49:34.8200,0.11,1.36,0.21,1.38
2022-08-11 17:49:34.8300,-0.02,1.07,0.17,1.08
2022-08-11 17:49:34.8490,-0.12,0.52,0.15,0.55
2022-08-11 17:49:34.8540,-0.15,0.1,0.21,0.27
2022-08-11 17:49:34.8610,-0.12,-0.02,0.35,0.37
2022-08-11 17:49:34.8700,-0.03,0.19,0.54,0.57
2022-08-11 17:49:34.8810,0.16,0.56,0.61,0.84
2022-08-11 17:49:34.8890,0.35,0.87,0.52,1.07
2022-08-11 17:49:34.8990,0.4,0.97,0.35,1.1
2022-08-11 17:49:34.9110,0.41,0.79,0.1,0.89
2022-08-11 17:49:34.9210,0.33,0.61,-0.08,0.69
2022-08-11 17:49:34.9290,0.21,0.38,-0.14,0.45
2022-08-11 17:49:34.9400,0.0,0.24,-0.1,0.26
2022-08-11 17:49:34.9530,-0.28,-0.06,-0.08,0.29
2022-08-11 17:49:34.9590,-0.59,-0.46,-0.02,0.74
2022-08-11 17:49:34.9700,-0.73,-0.82,-0.19,1.11
2022-08-11 17:49:34.9800,-0.71,-1.14,-0.22,1.36
2022-08-11 17:49:34.9900,-0.73,-1.18,0.0,1.38
2022-08-11 17:49:34.9990,-0.25,-1.11,0.0,1.13
2022-08-11 17:49:35.0100,0.29,-0.51,0.19,0.61
2022-08-11 17:49:35.0190,0.53,-0.05,0.38,0.65
2022-08-11 17:49:35.0290,0.69,-0.17,0.14,0.72
2022-08-11 17:49:35.0400,0.45,-0.35,-0.05,0.57
2022-08-11 17:49:35.0520,0.08,-0.62,-0.26,0.67
2022-08-11 17:49:35.0580,0.18,-1.08,-0.62,1.25
2022-08-11 17:49:35.0690,0.28,-0.99,-0.74,1.26
2022-08-11 17:49:35.0790,0.4,-0.44,-0.66,0.88
2022-08-11 17:49:35.0890,0.36,-0.39,-0.93,1.07
2022-08-11 17:49:35.0980,0.15,-0.47,-1.17,1.26
2022-08-11 17:49:35.1090,-0.27,-0.56,-1.3,1.44
2022-08-11 17:49:35.1190,-0.34,-0.66,-1.54,1.7
2022-08-11 17:49:35.1290,-0.29,-0.37,-1.64,1.7
2022-08-11 17:49:35.1380,-0.08,-0.26,-1.83,1.85
2022-08-11 17:49:35.1520,-0.25,0.09,-1.81,1.82
2022-08-11 17:49:35.1580,-0.3,0.61,-1.82,1.94
2022-08-11 17:49:35.1690,0.12,1.06,-1.63,1.94
2022-08-11 17:49:35.1770,0.7,0.88,-1.35,1.75
2022-08-11 17:49:35.1880,0.73,0.58,-0.57,1.09
2022-08-11 17:49:35.1980,0.54,0.56,0.13,0.78
2022-08-11 17:49:35.2070,0.3,0.24,0.64,0.74
2022-08-11 17:49:35.2180,-0.09,0.03,1.29,1.29
2022-08-11 17:49:35.2270,0.1,-0.53,1.71,1.79
2022-08-11 17:49:35.2380,0.27,-0.71,2.27,2.39
2022-08-11 17:49:35.2520,0.68,-0.3,2.32,2.43
2022-08-11 17:49:35.2580,1.17,0.45,1.82,2.2
2022-08-11 17:49:35.2670,1.43,0.35,1.41,2.03
2022-08-11 17:49:35.2780,1.12,-0.34,1.64,2.01
2022-08-11 17:49:35.2870,0.93,-1.05,1.6,2.12
2022-08-11 17:49:35.2970,0.94,-1.33,1.33,2.1
2022-08-11 17:49:35.3070,0.76,-0.51,1.1,1.43
2022-08-11 17:49:35.3180,0.5,0.52,0.9,1.15
2022-08-11 17:49:35.3270,-0.24,1.51,0.83,1.73
2022-08-11 17:49:35.3370,-0.76,1.5,0.43,1.73
2022-08-11 17:49:35.3550,-1.2,0.77,0.04,1.42
2022-08-11 17:49:35.3600,-1.47,0.5,-0.43,1.61
2022-08-11 17:49:35.3680,-0.97,0.15,-1.11,1.48
2022-08-11 17:49:35.3760,0.22,-0.22,-1.1,1.14
2022-08-11 17:49:35.3860,1.03,-0.59,-0.38,1.24
2022-08-11 17:49:35.3970,0.9,-0.39,-0.08,0.98
2022-08-11 17:49:35.4060,0.34,-0.14,0.5,0.62
2022-08-11 17:49:35.4180,-0.06,-0.48,0.94,1.05
2022-08-11 17:49:35.4270,0.22,-1.05,1.27,1.66
2022-08-11 17:49:35.4360,0.63,-1.82,1.04,2.18
2022-08-11 17:49:35.4550,0.6,-1.56,0.17,1.68
2022-08-11 17:49:35.4600,0.51,0.12,-0.27,0.58
2022-08-11 17:49:35.4660,0.75,1.42,-0.02,1.6
2022-08-11 17:49:35.4760,0.29,2.13,0.72,2.26
2022-08-11 17:49:35.4860,-0.56,1.72,2.05,2.73
2022-08-11 17:49:35.4960,-0.95,2.23,2.05,3.17
2022-08-11 17:49:35.5050,0.52,3.04,-5.59,6.38
2022-08-11 17:49:35.5150,3.1,-1.9,-3.44,5.0
2022-08-11 17:49:35.5260,1.11,-0.96,0.72,1.63
2022-08-11 17:49:35.5360,0.19,0.21,2.17,2.18
2022-08-11 17:49:35.5540,0.49,-0.65,1.96,2.12
2022-08-11 17:49:35.5580,-0.31,-1.04,0.69,1.28
2022-08-11 17:49:35.5640,-0.22,-0.99,0.71,1.23
2022-08-11 17:49:35.5760,0.28,-1.11,0.63,1.3
2022-08-11 17:49:35.5840,0.52,-0.76,0.38,0.99
2022-08-11 17:49:35.5940,0.63,-0.48,1.31,1.53
2022-08-11 17:49:35.6040,0.59,-0.01,2.81,2.87
2022-08-11 17:49:35.6150,0.67,-0.5,3.42,3.52
2022-08-11 17:49:35.6240,0.76,-1.35,3.55,3.87
2022-08-11 17:49:35.6340,0.01,-1.57,2.15,2.66
2022-08-11 17:49:35.6530,-0.81,-1.8,0.39,2.01
2022-08-11 17:49:35.6580,-1.11,-1.57,-1.17,2.25
2022-08-11 17:49:35.6640,-0.43,-0.08,-2.31,2.35
2022-08-11 17:49:35.6740,0.17,1.36,-2.29,2.66
2022-08-11 17:49:35.6840,0.14,1.75,-2.02,2.67
2022-08-11 17:49:35.6930,0.1,0.77,-1.66,1.83
2022-08-11 17:49:35.7040,0.53,-0.35,-0.82,1.03
2022-08-11 17:49:35.7140,1.3,-1.52,-0.21,2.01
2022-08-11 17:49:35.7230,1.69,-2.66,0.31,3.16
2022-08-11 17:49:35.7340,1.73,-1.91,0.43,2.61
2022-08-11 17:49:35.7430,1.02,0.98,0.26,1.43
2022-08-11 17:49:35.7570,-0.25,3.58,0.1,3.59
2022-08-11 17:49:35.7630,-1.17,4.15,1.13,4.45
2022-08-11 17:49:35.7730,-1.16,1.7,-1.46,2.52
2022-08-11 17:49:35.7830,-0.84,0.35,-3.42,3.53
2022-08-11 17:49:35.7930,0.47,-0.37,-1.28,1.41
2022-08-11 17:49:35.8030,0.75,-1.06,-0.5,1.39
2022-08-11 17:49:35.8130,0.02,-1.12,-0.93,1.45
2022-08-11 17:49:35.8230,0.05,-0.34,-0.22,0.4
2022-08-11 17:49:35.8340,-1.48,0.75,0.83,1.85
2022-08-11 17:49:35.8430,-1.72,0.54,1.52,2.35
2022-08-11 17:49:35.8560,-1.17,-0.01,1.63,2.0
2022-08-11 17:49:35.8640,-0.77,0.04,1.52,1.7
2022-08-11 17:49:35.8720,-0.33,0.15,0.9,0.97
2022-08-11 17:49:35.8820,0.0,0.07,0.24,0.25
2022-08-11 17:49:35.8920,-0.21,-0.25,-0.59,0.67
2022-08-11 17:49:35.9020,0.03,0.05,-0.56,0.56
2022-08-11 17:49:35.9120,1.13,-0.01,-1.37,1.77
2022-08-11 17:49:35.9220,1.75,-0.65,-2.44,3.07
2022-08-11 17:49:35.9320,1.76,-0.88,-2.48,3.16
2022-08-11 17:49:35.9420,1.65,-0.02,-1.93,2.53
2022-08-11 17:49:35.9570,1.91,-0.2,-1.12,2.22
2022-08-11 17:49:35.9630,1.16,-0.73,-0.94,1.66
2022-08-11 17:49:35.9720,0.73,-0.57,-0.74,1.18
2022-08-11 17:49:35.9810,0.76,0.01,0.46,0.88
2022-08-11 17:49:35.9930,-0.04,-0.6,1.02,1.18
2022-08-11 17:49:36.0010,-1.46,-0.14,0.87,1.7
2022-08-11 17:49:36.0110,-1.22,1.76,1.41,2.56
2022-08-11 17:49:36.0220,-0.41,2.52,1.57,2.99
2022-08-11 17:49:36.0320,-0.2,2.77,1.25,3.04
2022-08-11 17:49:36.0420,-1.31,0.99,0.04,1.64
2022-08-11 17:49:36.0560,-1.62,-0.31,-0.92,1.88
2022-08-11 17:49:36.0620,0.1,-1.58,0.7,1.73
2022-08-11 17:49:36.0710,0.11,-0.81,0.29,0.86
2022-08-11 17:49:36.0800,-0.04,2.03,-0.77,2.17
2022-08-11 17:49:36.0920,-0.62,1.37,-0.85,1.72
2022-08-11 17:49:36.1020,0.93,-0.7,-1.06,1.57
2022-08-11 17:49:36.1110,2.48,-1.39,-1.68,3.3
2022-08-11 17:49:36.1220,1.88,-0.2,-3.02,3.56
2022-08-11 17:49:36.1300,1.61,0.0,-1.72,2.35
2022-08-11 17:49:36.1400,1.07,-0.16,0.38,1.14
2022-08-11 17:49:36.1570,0.06,0.38,0.55,0.67
2022-08-11 17:49:36.1600,-1.06,0.27,0.53,1.21
2022-08-11 17:49:36.1710,-1.7,0.17,1.84,2.51
2022-08-11 17:49:36.1800,-1.38,-0.21,2.87,3.19
2022-08-11 17:49:36.1910,-1.14,0.0,2.6,2.83
2022-08-11 17:49:36.2000,-0.41,0.63,1.46,1.64
2022-08-11 17:49:36.2110,-0.74,0.45,0.56,1.03
2022-08-11 17:49:36.2210,-1.18,0.56,1.61,2.07
2022-08-11 17:49:36.2290,0.54,1.18,-0.1,1.3
2022-08-11 17:49:36.2400,0.88,-0.55,0.0,1.03
2022-08-11 17:49:36.2570,0.19,-1.14,-0.69,1.34
2022-08-11 17:49:36.2590,-0.23,-1.36,-1.62,2.12
2022-08-11 17:49:36.2690,-0.19,-1.13,-1.25,1.69
2022-08-11 17:49:36.2790,0.22,-0.99,-0.56,1.15
2022-08-11 17:49:36.2900,0.37,-0.89,0.92,1.33
2022-08-11 17:49:36.2990,0.37,-0.29,1.19,1.27
2022-08-11 17:49:36.3100,0.45,0.11,1.53,1.59
2022-08-11 17:49:36.3190,-0.24,0.93,0.93,1.33
2022-08-11 17:49:36.3300,-0.4,1.04,0.67,1.3
2022-08-11 17:49:36.3400,0.37,0.12,1.03,1.1
2022-08-11 17:49:36.3580,0.51,-0.18,-0.33,0.63
2022-08-11 17:49:36.3620,1.2,-0.7,-0.94,1.67
2022-08-11 17:49:36.3680,1.48,-0.85,-1.71,2.41
2022-08-11 17:49:36.3780,1.5,-0.7,-1.18,2.03
2022-08-11 17:49:36.3890,0.77,-0.33,-0.14,0.84
2022-08-11 17:49:36.3990,-0.1,-0.17,0.38,0.42
2022-08-11 17:49:36.4080,-0.68,0.22,0.15,0.73
2022-08-11 17:49:36.4190,-0.98,0.85,-0.58,1.42
2022-08-11 17:49:36.4290,-1.04,1.11,-0.81,1.72
2022-08-11 17:49:36.4380,-0.57,1.17,-0.55,1.41
2022-08-11 17:49:36.4590,-0.21,1.08,-0.32,1.14
2022-08-11 17:49:36.4620,-0.07,0.34,2.32,2.34
2022-08-11 17:49:36.4680,-1.51,-1.33,0.56,2.08
2022-08-11 17:49:36.4790,0.41,-0.43,-2.39,2.46
2022-08-11 17:49:36.4880,-0.29,0.98,-0.81,1.3
2022-08-11 17:49:36.4970,0.45,0.65,-0.77,1.1
2022-08-11 17:49:36.5080,0.67,0.63,-0.94,1.31
2022-08-11 17:49:36.5170,0.56,0.1,-0.51,0.76
2022-08-11 17:49:36.5280,0.47,-0.64,0.15,0.8
2022-08-11 17:49:36.5380,0.41,-0.57,0.46,0.83
2022-08-11 17:49:36.5470,0.16,0.09,0.36,0.4
2022-08-11 17:49:36.5610,-0.26,0.25,0.31,0.47
2022-08-11 17:49:36.5680,-0.82,0.7,0.54,1.2
2022-08-11 17:49:36.5780,-0.14,0.22,0.39,0.46
2022-08-11 17:49:36.5870,0.06,0.01,0.34,0.34
2022-08-11 17:49:36.5980,0.16,0.27,0.17,0.35
2022-08-11 17:49:36.6070,0.67,-0.17,-0.04,0.69
2022-08-11 17:49:36.6180,0.52,-0.43,-0.24,0.71
2022-08-11 17:49:36.6260,0.34,0.29,-0.36,0.57
2022-08-11 17:49:36.6370,-0.1,0.47,-0.36,0.6
2022-08-11 17:49:36.6470,-0.23,0.11,-0.15,0.29
2022-08-11 17:49:36.6600,0.05,-0.1,-0.17,0.2
2022-08-11 17:49:36.6670,0.19,-0.1,-0.2,0.29
2022-08-11 17:49:36.6770,0.52,0.22,-0.24,0.61
2022-08-11 17:49:36.6870,0.9,0.21,-0.42,1.01
2022-08-11 17:49:36.6960,0.73,-0.1,-0.15,0.75
2022-08-11 17:49:36.7070,-0.09,0.01,0.6,0.6
2022-08-11 17:49:36.7160,-0.41,0.04,0.85,0.94
2022-08-11 17:49:36.7260,0.45,0.04,0.02,0.45
2022-08-11 17:49:36.7360,0.8,-0.29,-0.52,0.99
2022-08-11 17:49:36.7450,0.82,-0.87,-0.36,1.24
2022-08-11 17:49:36.7620,0.64,-0.63,0.0,0.89
2022-08-11 17:49:36.7670,0.29,-0.37,0.57,0.73
2022-08-11 17:49:36.7760,0.19,-0.77,0.72,1.07
2022-08-11 17:49:36.7870,0.04,-0.49,0.37,0.61
2022-08-11 17:49:36.7950,-0.03,-0.08,-0.31,0.32
2022-08-11 17:49:36.8050,-0.16,-0.4,-0.33,0.54
2022-08-11 17:49:36.8150,-0.03,-0.82,-0.18,0.84
2022-08-11 17:49:36.8260,-0.01,-0.79,-0.77,1.1
2022-08-11 17:49:36.8360,-0.33,-0.52,-0.44,0.75
2022-08-11 17:49:36.8460,-0.88,-0.44,0.83,1.28
2022-08-11 17:49:36.8600,-1.34,0.2,0.8,1.57
2022-08-11 17:49:36.8660,-1.12,1.29,-0.29,1.73
2022-08-11 17:49:36.8750,-1.01,2.27,-1.29,2.79
2022-08-11 17:49:36.8860,-0.67,1.84,-0.38,1.99
2022-08-11 17:49:36.8960,0.43,1.25,-1.18,1.77
2022-08-11 17:49:36.9040,-2.4,-0.51,-0.83,2.59
2022-08-11 17:49:36.9140,-0.66,-0.5,1.07,1.35
2022-08-11 17:49:36.9250,-0.04,-0.58,1.48,1.59
2022-08-11 17:49:36.9340,0.67,-0.55,1.21,1.48
2022-08-11 17:49:36.9440,1.89,-0.14,0.54,1.97
2022-08-11 17:49:36.9610,4.08,1.02,0.56,4.24
2022-08-11 17:49:36.9650,3.1,0.78,0.31,3.21
2022-08-11 17:49:36.9750,2.13,-0.02,0.11,2.13
2022-08-11 17:49:36.9840,0.9,-0.85,-0.3,1.27
2022-08-11 17:49:36.9950,-0.56,0.3,-2.34,2.42
2022-08-11 17:49:37.0050,-0.11,0.25,-2.48,2.49
2022-08-11 17:49:37.0130,0.34,-0.52,-1.81,1.91
2022-08-11 17:49:37.0250,-0.54,-3.48,0.28,3.53
2022-08-11 17:49:37.0350,-1.42,-2.56,0.39,2.95
2022-08-11 17:49:37.0430,-2.7,0.28,0.43,2.74
2022-08-11 17:49:37.0600,-5.38,1.08,0.7,5.53
2022-08-11 17:49:37.0640,-5.15,0.48,0.64,5.21
2022-08-11 17:49:37.0730,-1.18,1.26,-0.76,1.88
2022-08-11 17:49:37.0830,-0.36,1.22,-1.02,1.63
2022-08-11 17:49:37.0940,-0.28,0.65,-0.02,0.7
2022-08-11 17:49:37.1030,-0.54,-0.82,0.26,1.01
2022-08-11 17:49:37.1140,-0.02,-1.61,0.71,1.75
2022-08-11 17:49:37.1230,0.9,-0.87,1.22,1.74
2022-08-11 17:49:37.1340,2.08,0.12,1.53,2.58
2022-08-11 17:49:37.1430,1.26,0.29,0.69,1.46
2022-08-11 17:49:37.1620,0.41,-0.59,0.03,0.71
2022-08-11 17:49:37.1660,-0.53,0.08,1.5,1.59
2022-08-11 17:49:37.1720,-0.38,0.4,1.39,1.49
2022-08-11 17:49:37.1830,0.43,-0.79,0.44,1.0
2022-08-11 17:49:37.1920,1.72,-0.02,1.71,2.42
2022-08-11 17:49:37.2030,2.03,2.14,5.12,5.9
2022-08-11 17:49:37.2120,2.0,1.68,2.57,3.66
2022-08-11 17:49:37.2230,-0.68,-1.41,-5.57,5.78
2022-08-11 17:49:37.2320,0.78,-0.33,-8.41,8.45
2022-08-11 17:49:37.2430,0.34,0.81,-3.47,3.57
2022-08-11 17:49:37.2650,0.5,0.67,2.05,2.21
2022-08-11 17:49:37.2680,-0.33,0.8,2.11,2.28
2022-08-11 17:49:37.2720,-0.61,0.78,0.24,1.01
2022-08-11 17:49:37.2830,0.13,0.5,-0.81,0.96
2022-08-11 17:49:37.2920,0.88,0.43,0.24,1.0
2022-08-11 17:49:37.3010,0.45,-0.01,0.19,0.48
2022-08-11 17:49:37.3110,-0.17,0.2,-0.78,0.82
2022-08-11 17:49:37.3210,-0.38,0.49,-0.21,0.65
2022-08-11 17:49:37.3310,-0.64,0.3,0.69,0.98
2022-08-11 17:49:37.3410,-0.01,0.1,1.13,1.13
2022-08-11 17:49:37.3520,0.23,-0.31,0.1,0.39
2022-08-11 17:49:37.3690,0.19,-0.25,-0.43,0.53
2022-08-11 17:49:37.3740,0.43,-0.06,0.18,0.47
2022-08-11 17:49:37.3810,0.25,-0.36,-0.19,0.47
2022-08-11 17:49:37.3910,0.21,-0.61,-0.45,0.78
2022-08-11 17:49:37.4020,0.73,-0.38,0.05,0.82
2022-08-11 17:49:37.4100,0.86,-0.28,-0.31,0.95
2022-08-11 17:49:37.4200,0.86,-0.14,-0.45,0.98
2022-08-11 17:49:37.4310,0.32,0.24,-0.36,0.53
2022-08-11 17:49:37.4410,-0.19,0.47,-0.35,0.61
2022-08-11 17:49:37.4510,-0.32,0.22,-0.05,0.39
2022-08-11 17:49:37.4640,-0.33,-0.06,0.08,0.34
2022-08-11 17:49:37.4710,-0.23,-0.03,0.07,0.24
2022-08-11 17:49:37.4810,-0.18,-0.01,-0.04,0.18
2022-08-11 17:49:37.4900,-0.17,0.06,-0.24,0.3
2022-08-11 17:49:37.5000,-0.17,-0.09,-0.54,0.57
2022-08-11 17:49:37.5110,-0.35,0.01,-0.22,0.41
2022-08-11 17:49:37.5210,-0.91,0.44,0.24,1.03
2022-08-11 17:49:37.5300,-1.2,0.83,0.3,1.48
2022-08-11 17:49:37.5400,-1.12,1.02,0.34,1.55
2022-08-11 17:49:37.5490,-0.77,0.84,0.18,1.15
2022-08-11 17:49:37.5640,0.01,0.36,0.21,0.41
2022-08-11 17:49:37.5690,0.43,-0.13,0.1,0.46
2022-08-11 17:49:37.5800,0.63,-0.55,-0.17,0.85
2022-08-11 17:49:37.5890,0.4,-0.39,-0.51,0.75
2022-08-11 17:49:37.6000,-0.06,-0.45,0.35,0.57
2022-08-11 17:49:37.6100,0.03,-0.28,-0.32,0.42
2022-08-11 17:49:37.6200,0.1,0.17,0.02,0.19
2022-08-11 17:49:37.6300,-0.21,0.18,-0.36,0.45
2022-08-11 17:49:37.6400,-0.69,0.14,-0.08,0.7
2022-08-11 17:49:37.6500,-0.37,-0.26,0.15,0.47
2022-08-11 17:49:37.6630,0.01,-0.46,-0.41,0.61
2022-08-11 17:49:37.6690,0.2,-0.65,-0.42,0.79
2022-08-11 17:49:37.6790,0.71,-0.87,-0.48,1.22
2022-08-11 17:49:37.6890,1.01,-0.76,-0.53,1.37
2022-08-11 17:49:37.6990,0.44,-0.42,-0.18,0.63
2022-08-11 17:49:37.7100,-0.02,-0.01,0.15,0.15
2022-08-11 17:49:37.7200,-0.52,0.6,0.06,0.79
2022-08-11 17:49:37.7300,-0.01,0.76,0.41,0.86
2022-08-11 17:49:37.7380,0.13,-0.02,0.8,0.81
2022-08-11 17:49:37.7480,-0.31,-0.06,0.11,0.33
2022-08-11 17:49:37.7650,-0.15,0.38,-0.55,0.68
2022-08-11 17:49:37.7680,0.31,0.89,-0.28,0.98
2022-08-11 17:49:37.7780,1.53,1.03,-1.03,2.11
2022-08-11 17:49:37.7890,1.31,0.93,-0.83,1.8
2022-08-11 17:49:37.7980,0.07,0.63,0.61,0.87
2022-08-11 17:49:37.8090,-0.6,0.48,0.49,0.91
2022-08-11 17:49:37.8190,-0.8,-0.01,0.21,0.82
2022-08-11 17:49:37.8290,-0.7,-0.82,0.16,1.08
2022-08-11 17:49:37.8380,-0.42,-1.99,-0.58,2.11
2022-08-11 17:49:37.8480,-0.34,-2.71,-1.07,2.93
2022-08-11 17:49:37.8640,-0.25,-2.56,-0.48,2.61
2022-08-11 17:49:37.8690,-0.15,-2.12,0.63,2.21
2022-08-11 17:49:37.8770,-0.65,-1.92,1.63,2.6
2022-08-11 17:49:37.8870,-0.96,-1.69,2.1,2.86
2022-08-11 17:49:37.8970,-1.01,-0.97,2.24,2.64
2022-08-11 17:49:37.9080,-0.8,-0.16,2.1,2.25
2022-08-11 17:49:37.9180,-0.44,0.09,1.88,1.93
2022-08-11 17:49:37.9280,0.15,0.26,0.15,0.33
2022-08-11 17:49:37.9370,2.57,0.54,-0.23,2.63
2022-08-11 17:49:37.9480,2.03,0.4,-0.52,2.13
2022-08-11 17:49:37.9660,0.95,0.31,-1.09,1.47
2022-08-11 17:49:37.9710,-0.25,1.06,-1.63,1.96
2022-08-11 17:49:37.9770,0.51,1.31,-0.45,1.47
2022-08-11 17:49:37.9860,0.31,1.57,0.2,1.61
2022-08-11 17:49:37.9960,-1.15,2.62,-0.16,2.86
2022-08-11 17:49:38.0060,-0.54,1.58,-0.06,1.67
2022-08-11 17:49:38.0160,0.56,0.33,-0.27,0.7
2022-08-11 17:49:38.0270,0.44,-0.45,-0.52,0.81
2022-08-11 17:49:38.0370,0.3,-0.43,-0.48,0.71
2022-08-11 17:49:38.0470,1.66,-1.01,0.5,2.0
2022-08-11 17:49:38.0650,1.37,-1.57,-0.5,2.14
2022-08-11 17:49:38.0700,1.17,-1.93,-0.06,2.25
2022-08-11 17:49:38.0760,1.4,-1.66,-0.71,2.28
2022-08-11 17:49:38.0870,0.61,-0.28,-0.86,1.09
2022-08-11 17:49:38.0960,-0.68,1.13,-0.7,1.49
2022-08-11 17:49:38.1050,-1.8,1.93,-0.26,2.65
2022-08-11 17:49:38.1160,-1.24,1.09,0.29,1.67
2022-08-11 17:49:38.1250,0.01,-0.03,-0.32,0.32
2022-08-11 17:49:38.1350,0.91,-0.5,-0.33,1.08
2022-08-11 17:49:38.1450,0.8,-0.39,0.08,0.89
2022-08-11 17:49:38.1550,-0.17,-0.43,-1.43,1.5
2022-08-11 17:49:38.1690,0.79,-0.18,-1.56,1.75
2022-08-11 17:49:38.1750,1.64,0.42,-0.93,1.93
2022-08-11 17:49:38.1860,0.51,0.56,-0.3,0.81
2022-08-11 17:49:38.1950,0.1,1.13,-0.85,1.41
2022-08-11 17:49:38.2040,-1.03,1.48,-1.09,2.1
2022-08-11 17:49:38.2150,-1.71,-0.31,-1.5,2.29
2022-08-11 17:49:38.2240,-1.19,-1.56,-0.94,2.17
2022-08-11 17:49:38.2350,-0.37,-2.16,0.14,2.19
2022-08-11 17:49:38.2450,-0.04,-2.31,0.32,2.33
2022-08-11 17:49:38.2560,-0.17,1.09,-0.41,1.17
2022-08-11 17:49:38.2680,-1.92,2.93,-0.15,3.5
2022-08-11 17:49:38.2740,-3.23,3.46,-1.08,4.85
2022-08-11 17:49:38.2850,-1.74,2.15,-1.55,3.17
2022-08-11 17:49:38.2940,-0.07,0.39,-1.7,1.74
2022-08-11 17:49:38.3040,0.43,-2.65,-1.01,2.86
2022-08-11 17:49:38.3140,0.42,-4.57,0.01,4.58
2022-08-11 17:49:38.3240,1.63,-7.37,1.48,7.69
2022-08-11 17:49:38.3350,2.37,-6.54,1.87,7.2
2022-08-11 17:49:38.3450,0.64,-3.9,2.8,4.84
2022-08-11 17:49:38.3550,-2.59,1.11,2.62,3.84
2022-08-11 17:49:38.3690,-3.46,5.01,2.74,6.67
2022-08-11 17:49:38.3730,-2.39,5.53,0.75,6.07
2022-08-11 17:49:38.3850,-0.73,5.28,0.07,5.33
2022-08-11 17:49:38.3930,2.26,3.5,0.34,4.18
2022-08-11 17:49:38.4040,2.78,0.99,0.32,2.96
2022-08-11 17:49:38.4130,3.07,-0.56,-2.69,4.12
2022-08-11 17:49:38.4230,2.26,-1.05,-7.15,7.57
2022-08-11 17:49:38.4330,0.75,2.79,-4.72,5.53
2022-08-11 17:49:38.4440,-1.0,4.13,0.2,4.25
2022-08-11 17:49:38.4530,-1.6,0.12,2.02,2.57
2022-08-11 17:49:38.4670,-1.39,-1.25,1.77,2.57
2022-08-11 17:49:38.4740,-1.93,-1.77,2.05,3.32
2022-08-11 17:49:38.4840,-1.31,-1.85,1.21,2.56
2022-08-11 17:49:38.4920,-0.33,-1.0,0.71,1.27
2022-08-11 17:49:38.5030,0.02,-0.12,0.34,0.36
2022-08-11 17:49:38.5130,0.5,-0.42,0.05,0.65
2022-08-11 17:49:38.5220,1.13,0.93,0.63,1.59
2022-08-11 17:49:38.5330,1.06,0.93,1.24,1.87
2022-08-11 17:49:38.5420,0.44,0.43,2.58,2.65
2022-08-11 17:49:38.5530,-0.53,-0.19,3.22,3.26
2022-08-11 17:49:38.5700,-0.64,-1.09,2.62,2.9
2022-08-11 17:49:38.5740,-1.51,-2.62,1.85,3.54
2022-08-11 17:49:38.5830,-1.11,-3.2,1.39,3.66
2022-08-11 17:49:38.5930,2.97,-0.17,0.41,3.0
2022-08-11 17:49:38.6020,4.07,2.98,-1.32,5.21
2022-08-11 17:49:38.6120,3.69,4.21,-1.03,5.69
2022-08-11 17:49:38.6230,-0.72,2.86,-1.15,3.16
2022-08-11 17:49:38.6310,-4.45,0.41,-1.28,4.64
2022-08-11 17:49:38.6420,-1.86,-0.5,-0.81,2.08
2022-08-11 17:49:38.6510,1.24,0.36,-1.2,1.76
2022-08-11 17:49:38.6720,1.45,1.62,-0.47,2.22
2022-08-11 17:49:38.6800,0.48,1.79,0.82,2.02
2022-08-11 17:49:38.6840,0.58,0.06,0.62,0.85
2022-08-11 17:49:38.6910,1.82,-1.09,-0.48,2.17
2022-08-11 17:49:38.7020,2.55,-1.83,-1.84,3.63
2022-08-11 17:49:38.7110,2.28,-2.02,-2.4,3.87
2022-08-11 17:49:38.7220,1.06,-2.03,-1.45,2.71
2022-08-11 17:49:38.7310,-1.19,-2.24,-0.46,2.57
2022-08-11 17:49:38.7420,-3.38,-2.67,-0.36,4.32
2022-08-11 17:49:38.7520,-2.59,-3.28,-0.61,4.22
2022-08-11 17:49:38.7720,-1.86,-3.18,-1.47,3.96
2022-08-11 17:49:38.7740,-2.11,-2.9,-3.31,4.88
2022-08-11 17:49:38.7810,-0.25,-2.82,-3.69,4.65
2022-08-11 17:49:38.7900,1.71,-1.34,-2.93,3.64
2022-08-11 17:49:38.8000,3.19,1.71,-1.19,3.81
2022-08-11 17:49:38.8110,1.51,4.88,0.72,5.15
2022-08-11 17:49:38.8210,-1.1,4.7,-2.53,5.44
2022-08-11 17:49:38.8300,2.58,-0.11,3.57,4.4
2022-08-11 17:49:38.8410,2.26,-1.27,2.75,3.77
2022-08-11 17:49:38.8500,-1.34,0.26,-1.16,1.79
2022-08-11 17:49:38.8710,-2.29,0.01,1.15,2.56
2022-08-11 17:49:38.8740,-2.79,-1.1,1.66,3.42
2022-08-11 17:49:38.8790,-3.5,0.34,1.62,3.87
2022-08-11 17:49:38.8900,-1.96,1.68,0.44,2.61
2022-08-11 17:49:38.8990,-1.37,2.98,0.3,3.29
2022-08-11 17:49:38.9090,-0.62,2.81,0.53,2.92
2022-08-11 17:49:38.9200,0.18,2.33,0.78,2.46
2022-08-11 17:49:38.9300,-0.98,0.11,1.44,1.74
2022-08-11 17:49:38.9390,-0.72,-3.59,2.5,4.43
2022-08-11 17:49:38.9490,0.57,-2.63,1.66,3.16
2022-08-11 17:49:38.9600,2.41,0.49,2.38,3.42
2022-08-11 17:49:38.9730,1.41,1.61,2.44,3.24
2022-08-11 17:49:38.9800,0.73,2.19,-0.08,2.3
2022-08-11 17:49:38.9890,-0.4,1.99,-1.13,2.32
2022-08-11 17:49:39.0000,-0.44,0.64,-0.44,0.89
2022-08-11 17:49:39.0100,-0.07,-0.2,0.88,0.9
2022-08-11 17:49:39.0180,1.07,-1.77,0.5,2.12
2022-08-11 17:49:39.0290,2.17,-2.85,-0.4,3.6
2022-08-11 17:49:39.0400,2.15,-4.23,-0.81,4.81
2022-08-11 17:49:39.0480,2.48,-7.35,-1.31,7.86
2022-08-11 17:49:39.0590,3.05,-10.22,-1.83,10.82
2022-08-11 17:49:39.0720,1.92,-7.97,0.83,8.23
2022-08-11 17:49:39.0780,-0.34,-8.24,3.88,9.11
2022-08-11 17:49:39.0880,0.78,-5.93,2.05,6.32
2022-08-11 17:49:39.0980,2.7,-3.57,0.66,4.52
2022-08-11 17:49:39.1080,6.97,-6.5,-0.68,9.55
2022-08-11 17:49:39.1180,1.82,8.45,-3.32,9.25
2022-08-11 17:49:39.1280,-8.12,25.34,-2.35,26.71
2022-08-11 17:49:39.1390,-4.76,10.39,-0.28,11.43
2022-08-11 17:49:39.1470,-1.98,0.18,-1.9,2.75
2022-08-11 17:49:39.1570,-1.64,-0.8,-2.65,3.21
2022-08-11 17:49:39.1750,-1.63,-0.75,-0.33,1.82
2022-08-11 17:49:39.1800,-0.42,-0.35,-1.5,1.59
2022-08-11 17:49:39.1900,-0.21,1.41,-1.17,1.84
2022-08-11 17:49:39.1970,-0.71,1.46,0.74,1.78
2022-08-11 17:49:39.2070,-0.92,-0.2,2.02,2.22
2022-08-11 17:49:39.2170,-0.4,-0.99,2.22,2.46
2022-08-11 17:49:39.2280,0.88,0.58,0.81,1.32
2022-08-11 17:49:39.2370,-0.3,3.31,1.41,3.61
2022-08-11 17:49:39.2480,-0.59,2.1,1.36,2.57
2022-08-11 17:49:39.2570,-0.52,0.42,1.18,1.35
2022-08-11 17:49:39.2720,-0.48,0.95,-0.16,1.07
2022-08-11 17:49:39.2770,-0.1,0.09,-1.74,1.74
2022-08-11 17:49:39.2880,-0.26,-0.94,-1.31,1.63
2022-08-11 17:49:39.2970,-0.08,0.08,-1.9,1.9
2022-08-11 17:49:39.3060,1.42,-1.58,-1.69,2.71
2022-08-11 17:49:39.3180,1.63,-1.68,-1.45,2.75
2022-08-11 17:49:39.3270,1.17,-1.56,-0.24,1.96
2022-08-11 17:49:39.3370,0.57,-0.99,0.06,1.14
2022-08-11 17:49:39.3460,0.47,-0.25,-0.26,0.59
2022-08-11 17:49:39.3570,0.41,0.11,-0.22,0.47
2022-08-11 17:49:39.3730,0.64,-0.78,0.06,1.01
2022-08-11 17:49:39.3770,0.57,0.22,0.33,0.69
2022-08-11 17:49:39.3870,-0.58,2.0,1.31,2.46
2022-08-11 17:49:39.3960,-1.27,1.96,0.92,2.51
2022-08-11 17:49:39.4060,-1.67,1.38,0.93,2.35
2022-08-11 17:49:39.4150,-1.06,1.24,0.21,1.64
2022-08-11 17:49:39.4250,-0.72,1.98,0.21,2.11
2022-08-11 17:49:39.4370,-0.53,2.57,-0.09,2.62
2022-08-11 17:49:39.4460,-0.65,2.81,0.09,2.88
2022-08-11 17:49:39.4550,-0.9,3.8,0.42,3.92
2022-08-11 17:49:39.4730,-0.81,4.22,0.09,4.29
2022-08-11 17:49:39.4770,-0.53,4.65,-0.2,4.68
2022-08-11 17:49:39.4860,-0.16,4.44,-0.69,4.49
2022-08-11 17:49:39.4950,0.28,3.85,-0.8,3.94
2022-08-11 17:49:39.5050,0.56,3.77,-1.03,3.94
2022-08-11 17:49:39.5150,1.14,3.43,-0.83,3.7
2022-08-11 17:49:39.5250,1.4,1.13,0.39,1.84
2022-08-11 17:49:39.5360,1.79,-2.14,3.21,4.25
2022-08-11 17:49:39.5450,0.76,-4.44,2.25,5.03
2022-08-11 17:49:39.5560,-4.44,-5.33,-3.13,7.61
2022-08-11 17:49:39.5750,-1.58,-6.81,-0.12,6.99
2022-08-11 17:49:39.5780,4.33,-6.29,1.5,7.78
2022-08-11 17:49:39.5840,4.9,-3.58,-3.73,7.12
2022-08-11 17:49:39.5940,4.9,-1.66,-2.86,5.91
2022-08-11 17:49:39.6040,3.25,1.25,0.24,3.49
2022-08-11 17:49:39.6140,0.56,3.24,1.1,3.46
2022-08-11 17:49:39.6240,-1.14,2.7,0.5,2.97
2022-08-11 17:49:39.6340,0.48,0.91,0.69,1.23
2022-08-11 17:49:39.6440,-0.44,-0.71,0.58,1.01
2022-08-11 17:49:39.6550,-1.26,-1.16,0.09,1.71
2022-08-11 17:49:39.6770,-1.52,-0.57,-0.12,1.62
2022-08-11 17:49:39.6800,1.77,-0.4,1.11,2.12
2022-08-11 17:49:39.6840,0.66,0.02,0.36,0.75
2022-08-11 17:49:39.6960,-0.73,0.28,-1.54,1.72
2022-08-11 17:49:39.7030,-0.42,0.58,-0.11,0.72
2022-08-11 17:49:39.7140,-0.3,0.45,1.51,1.6
2022-08-11 17:49:39.7240,-0.46,0.09,1.89,1.94
2022-08-11 17:49:39.7340,-0.12,0.16,0.9,0.92
2022-08-11 17:49:39.7450,0.15,0.21,-0.27,0.37
2022-08-11 17:49:39.7540,-0.74,0.29,0.1,0.8
2022-08-11 17:49:39.7640,-0.77,0.46,0.19,0.91
2022-08-11 17:49:39.7780,0.2,0.32,-0.59,0.7
2022-08-11 17:49:39.7830,0.26,0.22,-0.99,1.04
2022-08-11 17:49:39.7930,-0.19,0.06,-0.69,0.71
2022-08-11 17:49:39.8030,-0.44,-0.11,-0.09,0.46
2022-08-11 17:49:39.8120,-0.41,-0.11,0.41,0.59
2022-08-11 17:49:39.8240,-0.24,0.03,0.52,0.57
2022-08-11 17:49:39.8340,-0.13,0.19,0.29,0.37
2022-08-11 17:49:39.8420,-0.16,0.22,0.13,0.3
2022-08-11 17:49:39.8520,-0.31,0.11,0.17,0.37
2022-08-11 17:49:39.8620,-0.47,-0.19,0.28,0.57
2022-08-11 17:49:39.8760,-0.57,-0.57,0.31,0.86
2022-08-11 17:49:39.8820,-0.43,-0.75,0.2,0.88
2022-08-11 17:49:39.8930,-0.11,-0.6,0.05,0.61
2022-08-11 17:49:39.9020,0.07,-0.22,-0.15,0.27
2022-08-11 17:49:39.9120,0.09,0.17,-0.2,0.27
2022-08-11 17:49:39.9230,0.03,0.47,-0.14,0.49
2022-08-11 17:49:39.9330,-0.01,0.6,0.06,0.6
2022-08-11 17:49:39.9430,-0.06,0.49,0.26,0.55
2022-08-11 17:49:39.9510,-0.18,0.22,0.27,0.39
2022-08-11 17:49:39.9610,-0.44,-0.1,0.15,0.47
2022-08-11 17:49:39.9770,-0.69,-0.39,0.01,0.79
2022-08-11 17:49:39.9820,-0.76,-0.51,-0.05,0.91
2022-08-11 17:49:39.9930,-0.69,-0.32,-0.06,0.76
2022-08-11 17:49:40.0030,-0.57,-0.23,-0.2,0.64
2022-08-11 17:49:40.0120,-0.4,-0.2,-0.45,0.63
2022-08-11 17:49:40.0220,-0.24,-0.23,-0.69,0.76
2022-08-11 17:49:40.0310,-0.16,-0.33,-0.58,0.68
2022-08-11 17:49:40.0410,-0.33,-0.28,-0.43,0.61
2022-08-11 17:49:40.0510,-0.15,-0.29,-0.24,0.4
2022-08-11 17:49:40.0620,0.34,-0.52,-0.32,0.69
2022-08-11 17:49:40.0760,0.45,-0.53,-0.71,0.99
2022-08-11 17:49:40.0800,0.69,-0.27,-0.84,1.12
2022-08-11 17:49:40.0920,0.96,0.07,-1.04,1.41
2022-08-11 17:49:40.1020,1.27,0.49,-0.6,1.48
2022-08-11 17:49:40.1110,1.02,1.11,-0.34,1.54
2022-08-11 17:49:40.1200,0.64,1.42,-0.94,1.81
2022-08-11 17:49:40.1300,0.45,1.0,-1.45,1.81
2022-08-11 17:49:40.1410,0.69,0.07,-0.57,0.89
2022-08-11 17:49:40.1510,0.65,-0.66,-0.1,0.93
2022-08-11 17:49:40.1610,0.54,-0.83,-0.44,1.08
2022-08-11 17:49:40.1770,0.53,-0.57,-0.88,1.17
2022-08-11 17:49:40.1820,0.41,-0.1,-1.17,1.24
2022-08-11 17:49:40.1910,0.13,0.19,-0.99,1.01
2022-08-11 17:49:40.2000,-0.04,0.2,-0.6,0.63
2022-08-11 17:49:40.2100,0.0,-0.03,-0.39,0.39
2022-08-11 17:49:40.2210,0.03,-0.27,-0.49,0.56
2022-08-11 17:49:40.2290,0.14,-0.38,-0.53,0.66
2022-08-11 17:49:40.2390,0.24,-0.34,-0.53,0.67
2022-08-11 17:49:40.2510,0.13,-0.14,-0.72,0.74
2022-08-11 17:49:40.2600,0.19,0.02,-0.76,0.78
2022-08-11 17:49:40.2770,0.25,0.13,-0.66,0.71
2022-08-11 17:49:40.2810,0.33,0.16,-0.53,0.64
2022-08-11 17:49:40.2910,0.43,0.12,-0.34,0.56
2022-08-11 17:49:40.2990,0.52,0.0,-0.3,0.6
2022-08-11 17:49:40.3090,0.7,-0.14,-0.21,0.74
2022-08-11 17:49:40.3200,0.82,-0.23,-0.28,0.89
2022-08-11 17:49:40.3290,0.93,-0.25,-0.43,1.05
2022-08-11 17:49:40.3390,1.04,-0.16,-0.5,1.16
2022-08-11 17:49:40.3490,1.11,-0.02,-0.47,1.2
2022-08-11 17:49:40.3600,1.04,0.14,-0.42,1.13
2022-08-11 17:49:40.3780,0.95,0.19,-0.32,1.02
2022-08-11 17:49:40.3820,0.9,0.21,-0.24,0.95
2022-08-11 17:49:40.3880,0.85,0.21,-0.11,0.88
2022-08-11 17:49:40.4000,0.71,0.19,-0.09,0.74
2022-08-11 17:49:40.4090,0.58,0.15,-0.07,0.6
2022-08-11 17:49:40.4180,0.43,0.1,-0.15,0.46
2022-08-11 17:49:40.4280,0.32,0.08,-0.19,0.38
2022-08-11 17:49:40.4390,0.23,0.05,-0.23,0.32
2022-08-11 17:49:40.4480,0.17,0.02,-0.28,0.32
2022-08-11 17:49:40.4590,0.2,-0.04,-0.18,0.27
2022-08-11 17:49:40.4770,0.2,-0.1,-0.2,0.3
2022-08-11 17:49:40.4810,0.31,-0.09,-0.13,0.34
2022-08-11 17:49:40.4880,0.37,-0.03,-0.04,0.37
2022-08-11 17:49:40.4990,0.38,0.04,0.02,0.38
2022-08-11 17:49:40.5070,0.32,0.05,0.06,0.32
2022-08-11 17:49:40.5170,0.32,-0.04,0.13,0.34
2022-08-11 17:49:40.5280,0.26,-0.11,0.11,0.3
2022-08-11 17:49:40.5370,0.22,-0.12,0.03,0.25
2022-08-11 17:49:40.5470,0.15,-0.05,-0.05,0.16
2022-08-11 17:49:40.5580,0.06,0.07,-0.01,0.09
2022-08-11 17:49:40.5670,0.02,0.11,0.19,0.22
2022-08-11 17:49:40.5810,-0.07,0.04,0.33,0.33
2022-08-11 17:49:40.5870,-0.11,-0.1,0.35,0.38
2022-08-11 17:49:40.5970,-0.07,-0.26,0.35,0.44
2022-08-11 17:49:40.6080,-0.05,-0.35,0.29,0.45
2022-08-11 17:49:40.6170,-0.11,-0.38,0.2,0.44
2022-08-11 17:49:40.6270,-0.1,-0.42,0.08,0.43
2022-08-11 17:49:40.6370,-0.07,-0.37,0.05,0.37
2022-08-11 17:49:40.6480,-0.13,-0.23,0.01,0.26
2022-08-11 17:49:40.6570,-0.09,-0.1,0.07,0.15
2022-08-11 17:49:40.6670,-0.04,0.06,0.17,0.18
2022-08-11 17:49:40.6800,-0.05,0.24,0.17,0.29
2022-08-11 17:49:40.6880,-0.02,0.44,0.19,0.47
2022-08-11 17:49:40.6970,-0.05,0.57,0.15,0.59
2022-08-11 17:49:40.7070,0.04,0.62,0.15,0.63
2022-08-11 17:49:40.7170,0.04,0.64,0.19,0.66
2022-08-11 17:49:40.7270,-0.08,0.64,0.02,0.64
2022-08-11 17:49:40.7370,-0.14,0.6,-0.1,0.62
2022-08-11 17:49:40.7460,-0.19,0.51,-0.08,0.55
2022-08-11 17:49:40.7570,-0.23,0.3,-0.03,0.37
2022-08-11 17:49:40.7650,-0.22,0.13,0.06,0.26
2022-08-11 17:49:40.7800,-0.18,-0.03,0.08,0.19
2022-08-11 17:49:40.7860,-0.14,-0.17,0.07,0.23
2022-08-11 17:49:40.7950,-0.11,-0.28,0.04,0.3
2022-08-11 17:49:40.8050,-0.12,-0.33,0.01,0.35
2022-08-11 17:49:40.8150,-0.2,-0.27,0.01,0.33
2022-08-11 17:49:40.8260,-0.3,-0.17,0.03,0.34
2022-08-11 17:49:40.8360,-0.41,-0.07,0.18,0.45
2022-08-11 17:49:40.8460,-0.47,-0.07,0.3,0.56
2022-08-11 17:49:40.8550,-0.46,-0.09,0.35,0.58
2022-08-11 17:49:40.8650,-0.41,-0.08,0.32,0.52
2022-08-11 17:49:40.8810,-0.35,-0.04,0.26,0.43
2022-08-11 17:49:40.8850,-0.24,0.01,0.24,0.33
2022-08-11 17:49:40.8950,-0.13,0.03,0.25,0.28
2022-08-11 17:49:40.9050,-0.05,-0.01,0.24,0.24
2022-08-11 17:49:40.9150,0.03,-0.07,0.21,0.22
2022-08-11 17:49:40.9240,0.02,-0.16,0.16,0.22
2022-08-11 17:49:40.9350,-0.02,-0.21,0.15,0.25
2022-08-11 17:49:40.9440,-0.02,-0.18,0.18,0.25
2022-08-11 17:49:40.9540,0.0,-0.13,0.19,0.23
2022-08-11 17:49:40.9650,0.04,-0.06,0.17,0.18
2022-08-11 17:49:40.9810,0.12,0.0,0.18,0.21
2022-08-11 17:49:40.9860,0.19,0.06,0.14,0.24
2022-08-11 17:49:40.9950,0.26,0.1,0.1,0.29
2022-08-11 17:49:41.0050,0.31,0.12,0.07,0.33
2022-08-11 17:49:41.0140,0.32,0.13,0.09,0.35
2022-08-11 17:49:41.0230,0.31,0.14,0.12,0.36
2022-08-11 17:49:41.0340,0.32,0.21,0.1,0.39
2022-08-11 17:49:41.0430,0.29,0.32,0.08,0.43
2022-08-11 17:49:41.0530,0.18,0.48,0.01,0.51
2022-08-11 17:49:41.0630,0.02,0.6,0.0,0.6
2022-08-11 17:49:41.0800,-0.14,0.63,0.05,0.64
2022-08-11 17:49:41.0850,-0.24,0.54,0.06,0.59
2022-08-11 17:49:41.0940,-0.33,0.42,0.09,0.54
2022-08-11 17:49:41.1030,-0.36,0.29,0.11,0.47
2022-08-11 17:49:41.1130,-0.31,0.16,0.15,0.37
2022-08-11 17:49:41.1240,-0.22,0.04,0.23,0.32
2022-08-11 17:49:41.1330,-0.11,-0.04,0.25,0.27
2022-08-11 17:49:41.1440,0.01,-0.08,0.29,0.3
2022-08-11 17:49:41.1540,0.1,-0.09,0.34,0.36
2022-08-11 17:49:41.1620,0.12,-0.11,0.36,0.39
2022-08-11 17:49:41.1820,0.1,-0.06,0.38,0.39
2022-08-11 17:49:41.1860,0.13,0.05,0.44,0.46
2022-08-11 17:49:41.1920,0.15,0.23,0.55,0.61
2022-08-11 17:49:41.2020,0.16,0.42,0.59,0.74
2022-08-11 17:49:41.2130,0.14,0.51,0.57,0.77
2022-08-11 17:49:41.2220,0.05,0.5,0.53,0.73
2022-08-11 17:49:41.2320,-0.07,0.44,0.51,0.67
2022-08-11 17:49:41.2430,-0.23,0.34,0.48,0.63
2022-08-11 17:49:41.2520,-0.29,0.26,0.53,0.65
2022-08-11 17:49:41.2620,-0.32,0.19,0.58,0.68
2022-08-11 17:49:41.2850,-0.34,0.12,0.53,0.64
2022-08-11 17:49:41.2870,-0.31,0.04,0.5,0.58
2022-08-11 17:49:41.2920,-0.26,-0.05,0.49,0.55
2022-08-11 17:49:41.3030,-0.24,-0.15,0.5,0.57
2022-08-11 17:49:41.3110,-0.23,-0.27,0.49,0.6
2022-08-11 17:49:41.3220,-0.17,-0.31,0.46,0.58
2022-08-11 17:49:41.3310,-0.11,-0.26,0.42,0.5
2022-08-11 17:49:41.3420,-0.06,-0.12,0.41,0.43
2022-08-11 17:49:41.3520,0.0,0.03,0.39,0.39
2022-08-11 17:49:41.3610,0.09,0.09,0.37,0.39
2022-08-11 17:49:41.3720,0.18,0.12,0.34,0.4
2022-08-11 17:49:41.3850,0.26,0.16,0.28,0.41
2022-08-11 17:49:41.3910,0.34,0.17,0.22,0.43
2022-08-11 17:49:41.4010,0.41,0.19,0.2,0.49
2022-08-11 17:49:41.4100,0.45,0.26,0.2,0.55
2022-08-11 17:49:41.4220,0.48,0.32,0.19,0.6
2022-08-11 17:49:41.4310,0.47,0.32,0.17,0.59
2022-08-11 17:49:41.4420,0.45,0.23,0.12,0.51
2022-08-11 17:49:41.4510,0.44,0.09,0.07,0.45
2022-08-11 17:49:41.4600,0.44,-0.02,0.03,0.44
2022-08-11 17:49:41.4710,0.49,-0.06,-0.03,0.49
2022-08-11 17:49:41.4850,0.52,0.0,-0.08,0.52
2022-08-11 17:49:41.4900,0.49,0.09,-0.12,0.51
2022-08-11 17:49:41.5000,0.41,0.1,-0.11,0.43
2022-08-11 17:49:41.5110,0.31,-0.03,-0.09,0.32
2022-08-11 17:49:41.5210,0.23,-0.15,-0.1,0.29
2022-08-11 17:49:41.5300,0.18,-0.22,-0.13,0.31
2022-08-11 17:49:41.5410,0.17,-0.18,-0.12,0.27
2022-08-11 17:49:41.5510,0.16,-0.1,-0.09,0.2
2022-08-11 17:49:41.5610,0.15,0.04,-0.06,0.16
2022-08-11 17:49:41.5710,0.12,0.15,-0.03,0.19
2022-08-11 17:49:41.5850,0.06,0.19,-0.05,0.2
2022-08-11 17:49:41.5910,-0.02,0.18,-0.11,0.21
2022-08-11 17:49:41.5990,-0.07,0.17,-0.15,0.23
2022-08-11 17:49:41.6090,-0.12,0.16,-0.14,0.24
2022-08-11 17:49:41.6190,-0.11,0.15,-0.13,0.22
2022-08-11 17:49:41.6290,-0.05,0.14,-0.1,0.17
2022-08-11 17:49:41.6400,0.01,0.11,-0.07,0.13
2022-08-11 17:49:41.6500,0.06,0.07,-0.05,0.1
2022-08-11 17:49:41.6590,0.1,0.02,-0.05,0.11
2022-08-11 17:49:41.6690,0.1,-0.04,-0.06,0.12
2022-08-11 17:49:41.6830,0.07,-0.09,-0.06,0.12
2022-08-11 17:49:41.6890,0.05,-0.11,-0.08,0.14
2022-08-11 17:49:41.6990,0.07,-0.09,-0.07,0.13
2022-08-11 17:49:41.7080,0.07,-0.04,-0.07,0.1
2022-08-11 17:49:41.7180,0.08,0.04,-0.06,0.1
2022-08-11 17:49:41.7290,0.06,0.11,-0.06,0.13
2022-08-11 17:49:41.7380,0.05,0.16,-0.07,0.18
2022-08-11 17:49:41.7480,0.02,0.14,-0.08,0.16
2022-08-11 17:49:41.7590,0.01,0.06,-0.08,0.1
2022-08-11 17:49:41.7690,0.05,-0.02,-0.06,0.08
2022-08-11 17:49:41.7860,0.12,-0.04,-0.03,0.13
2022-08-11 17:49:41.7900,0.23,-0.03,-0.01,0.23
2022-08-11 17:49:41.7980,0.32,0.02,0.0,0.32
2022-08-11 17:49:41.8090,0.34,0.09,-0.04,0.35
2022-08-11 17:49:41.8180,0.32,0.14,-0.09,0.36
2022-08-11 17:49:41.8290,0.24,0.17,-0.13,0.32
2022-08-11 17:49:41.8380,0.16,0.15,-0.13,0.25
2022-08-11 17:49:41.8470,0.08,0.1,-0.1,0.16
2022-08-11 17:49:41.8580,0.04,0.04,-0.09,0.1
2022-08-11 17:49:41.8680,0.04,-0.04,-0.09,0.1
2022-08-11 17:49:41.8840,0.04,-0.07,-0.08,0.11
2022-08-11 17:49:41.8870,0.02,-0.05,-0.07,0.08
2022-08-11 17:49:41.8970,-0.02,-0.03,-0.09,0.09
2022-08-11 17:49:41.9070,-0.05,0.04,-0.11,0.12
2022-08-11 17:49:41.9170,-0.08,0.07,-0.13,0.16
2022-08-11 17:49:41.9270,-0.07,0.07,-0.12,0.15
2022-08-11 17:49:41.9370,-0.03,0.07,-0.11,0.13
2022-08-11 17:49:41.9480,0.05,0.09,-0.08,0.13
2022-08-11 17:49:41.9580,0.11,0.1,-0.06,0.16
2022-08-11 17:49:41.9680,0.15,0.12,-0.06,0.2
2022-08-11 17:49:41.9880,0.16,0.13,-0.05,0.21
2022-08-11 17:49:41.9910,0.17,0.12,-0.08,0.22
2022-08-11 17:49:41.9960,0.15,0.09,-0.09,0.19
2022-08-11 17:49:42.0060,0.1,0.02,-0.08,0.12
2022-08-11 17:49:42.0160,0.06,-0.01,-0.06,0.08
2022-08-11 17:49:42.0260,0.02,-0.04,-0.05,0.06
2022-08-11 17:49:42.0370,0.0,-0.04,-0.01,0.04
2022-08-11 17:49:42.0470,-0.03,0.0,0.01,0.03
2022-08-11 17:49:42.0560,-0.07,0.06,-0.02,0.09
2022-08-11 17:49:42.0670,-0.1,0.12,-0.05,0.16
2022-08-11 17:49:42.0870,-0.14,0.16,-0.04,0.21
2022-08-11 17:49:42.0900,-0.17,0.14,-0.04,0.22
2022-08-11 17:49:42.0970,-0.16,0.09,-0.03,0.18
2022-08-11 17:49:42.1050,-0.1,0.0,-0.03,0.1
2022-08-11 17:49:42.1170,0.01,-0.07,-0.04,0.08
2022-08-11 17:49:42.1270,0.1,-0.04,-0.06,0.12
2022-08-11 17:49:42.1350,0.14,0.05,-0.09,0.17
2022-08-11 17:49:42.1460,0.08,0.15,-0.08,0.18
2022-08-11 17:49:42.1550,-0.02,0.25,-0.07,0.26
2022-08-11 17:49:42.1660,-0.11,0.25,-0.03,0.27
2022-08-11 17:49:42.1760,-0.17,0.15,0.01,0.22
2022-08-11 17:49:42.1890,-0.19,0.01,0.03,0.19
2022-08-11 17:49:42.1950,-0.15,-0.06,0.03,0.16
2022-08-11 17:49:42.2050,-0.12,-0.06,0.01,0.13
2022-08-11 17:49:42.2150,-0.11,-0.05,-0.01,0.12
2022-08-11 17:49:42.2240,-0.11,-0.02,-0.02,0.11
2022-08-11 17:49:42.2350,-0.1,0.01,-0.03,0.1
2022-08-11 17:49:42.2440,-0.1,0.0,-0.01,0.1
2022-08-11 17:49:42.2560,-0.07,-0.05,0.02,0.08
2022-08-11 17:49:42.2660,-0.03,-0.11,0.04,0.12
2022-08-11 17:49:42.2750,0.01,-0.14,0.01,0.14
2022-08-11 17:49:42.2890,0.02,-0.08,-0.05,0.09
2022-08-11 17:49:42.2950,-0.01,0.02,-0.09,0.09
2022-08-11 17:49:42.3040,-0.05,0.14,-0.08,0.16
2022-08-11 17:49:42.3150,-0.1,0.21,-0.01,0.23
2022-08-11 17:49:42.3250,-0.13,0.22,0.02,0.25
2022-08-11 17:49:42.3340,-0.13,0.21,0.02,0.24
2022-08-11 17:49:42.3450,-0.15,0.2,0.0,0.25
2022-08-11 17:49:42.3550,-0.14,0.14,-0.02,0.19
2022-08-11 17:49:42.3630,-0.1,0.05,-0.02,0.11
2022-08-11 17:49:42.3740,-0.05,-0.01,0.01,0.05
2022-08-11 17:49:42.3890,-0.01,-0.04,0.02,0.04
2022-08-11 17:49:42.3930,0.0,-0.06,0.01,0.06
2022-08-11 17:49:42.4040,0.0,-0.07,0.02,0.07
2022-08-11 17:49:42.4140,0.02,-0.12,0.06,0.13
2022-08-11 17:49:42.4230,0.1,-0.16,0.04,0.19
2022-08-11 17:49:42.4330,0.16,-0.14,0.0,0.21
2022-08-11 17:49:42.4430,0.21,-0.05,-0.03,0.21
2022-08-11 17:49:42.4530,0.23,0.07,-0.04,0.24
2022-08-11 17:49:42.4630,0.25,0.19,-0.03,0.31
2022-08-11 17:49:42.4740,0.25,0.3,0.0,0.39
2022-08-11 17:49:42.4880,0.22,0.35,-0.01,0.41
2022-08-11 17:49:42.4930,0.2,0.31,-0.03,0.37
2022-08-11 17:49:42.5050,0.19,0.18,-0.04,0.26
2022-08-11 17:49:42.5140,0.2,0.03,-0.02,0.2
2022-08-11 17:49:42.5230,0.23,-0.09,0.03,0.24
2022-08-11 17:49:42.5330,0.26,-0.13,0.06,0.29
2022-08-11 17:49:42.5430,0.31,-0.09,0.06,0.32
2022-08-11 17:49:42.5530,0.31,0.01,0.01,0.31
2022-08-11 17:49:42.5630,0.21,0.1,-0.02,0.23
2022-08-11 17:49:42.5720,0.03,0.11,0.0,0.11
2022-08-11 17:49:42.5900,-0.13,0.01,0.06,0.14
2022-08-11 17:49:42.5940,-0.2,-0.13,0.09,0.25
2022-08-11 17:49:42.6020,-0.18,-0.2,0.07,0.27
2022-08-11 17:49:42.6130,-0.14,-0.16,0.01,0.21
2022-08-11 17:49:42.6220,-0.08,0.0,-0.04,0.08
2022-08-11 17:49:42.6330,-0.06,0.18,-0.06,0.19
2022-08-11 17:49:42.6410,-0.09,0.29,-0.06,0.3
2022-08-11 17:49:42.6510,-0.13,0.28,-0.01,0.3
2022-08-11 17:49:42.6630,-0.19,0.1,0.01,0.21
2022-08-11 17:49:42.6720,-0.22,-0.12,-0.02,0.25
2022-08-11 17:49:42.6890,-0.23,-0.22,-0.06,0.32
2022-08-11 17:49:42.6930,-0.2,-0.15,-0.07,0.25
2022-08-11 17:49:42.7010,-0.14,0.01,-0.06,0.15
2022-08-11 17:49:42.7120,-0.07,0.18,-0.05,0.19
2022-08-11 17:49:42.7220,-0.03,0.29,-0.05,0.29
2022-08-11 17:49:42.7320,-0.02,0.34,-0.04,0.34
2022-08-11 17:49:42.7410,-0.06,0.34,-0.02,0.34
2022-08-11 17:49:42.7520,-0.11,0.24,0.0,0.26
2022-08-11 17:49:42.7620,-0.15,0.12,0.02,0.19
2022-08-11 17:49:42.7710,-0.16,0.01,0.03,0.16
2022-08-11 17:49:42.7930,-0.11,-0.01,0.06,0.12
2022-08-11 17:49:42.7970,-0.08,-0.01,0.1,0.12
2022-08-11 17:49:42.8000,-0.06,-0.07,0.1,0.13
2022-08-11 17:49:42.8110,-0.06,-0.14,0.11,0.18
2022-08-11 17:49:42.8200,-0.07,-0.21,0.08,0.23
2022-08-11 17:49:42.8310,-0.1,-0.22,0.03,0.24
2022-08-11 17:49:42.8410,-0.09,-0.2,-0.02,0.22
2022-08-11 17:49:42.8500,-0.03,-0.07,0.0,0.07
2022-08-11 17:49:42.8600,0.02,0.14,0.03,0.14
2022-08-11 17:49:42.8710,0.07,0.32,0.07,0.33
2022-08-11 17:49:42.8910,0.08,0.41,0.1,0.42
2022-08-11 17:49:42.8940,0.09,0.4,0.08,0.41
2022-08-11 17:49:42.8990,0.09,0.28,0.06,0.3
2022-08-11 17:49:42.9100,0.09,0.15,0.04,0.17
2022-08-11 17:49:42.9200,0.09,0.06,0.03,0.11
2022-08-11 17:49:42.9300,0.1,0.04,0.02,0.1
2022-08-11 17:49:42.9390,0.1,0.06,0.01,0.11
2022-08-11 17:49:42.9510,0.09,0.04,0.04,0.1
2022-08-11 17:49:42.9590,0.08,-0.02,0.04,0.09
2022-08-11 17:49:42.9700,0.07,-0.04,0.04,0.09
2022-08-11 17:49:42.9790,0.03,-0.03,0.03,0.05
2022-08-11 17:49:42.9930,-0.02,0.0,0.03,0.03
2022-08-11 17:49:43.0000,-0.04,0.0,0.04,0.05
2022-08-11 17:49:43.0090,-0.04,0.0,0.05,0.06
2022-08-11 17:49:43.0200,-0.01,0.03,0.07,0.07
2022-08-11 17:49:43.0300,0.02,0.05,0.12,0.13
2022-08-11 17:49:43.0390,0.08,0.08,0.13,0.17
2022-08-11 17:49:43.0480,0.1,0.08,0.12,0.17
2022-08-11 17:49:43.0580,0.09,0.05,0.08,0.13
2022-08-11 17:49:43.0680,0.07,0.02,0.01,0.07
2022-08-11 17:49:43.0790,0.06,-0.03,-0.05,0.08
2022-08-11 17:49:43.0920,0.08,-0.01,-0.09,0.12
2022-08-11 17:49:43.0990,0.13,0.09,-0.08,0.17
2022-08-11 17:49:43.1090,0.18,0.19,-0.07,0.27
2022-08-11 17:49:43.1180,0.22,0.23,-0.06,0.32
2022-08-11 17:49:43.1280,0.18,0.21,-0.04,0.27
2022-08-11 17:49:43.1380,0.13,0.13,-0.04,0.18
2022-08-11 17:49:43.1480,0.08,0.03,-0.06,0.1
2022-08-11 17:49:43.1590,0.06,-0.01,-0.04,0.07
2022-08-11 17:49:43.1680,0.11,-0.02,-0.01,0.11
2022-08-11 17:49:43.1780,0.19,0.02,-0.01,0.19
2022-08-11 17:49:43.1920,0.2,0.04,-0.02,0.2
2022-08-11 17:49:43.1980,0.17,0.04,-0.05,0.18
2022-08-11 17:49:43.2070,0.09,0.04,-0.07,0.12
2022-08-11 17:49:43.2180,-0.02,0.05,-0.11,0.12
2022-08-11 17:49:43.2280,-0.09,0.07,-0.09,0.14
2022-08-11 17:49:43.2380,-0.1,0.11,-0.05,0.15
2022-08-11 17:49:43.2480,-0.09,0.12,-0.01,0.15
2022-08-11 17:49:43.2570,-0.07,0.11,0.01,0.13
2022-08-11 17:49:43.2670,-0.06,0.06,0.01,0.08
2022-08-11 17:49:43.2770,-0.07,0.02,0.0,0.07
2022-08-11 17:49:43.2920,-0.04,-0.01,0.0,0.04
2022-08-11 17:49:43.2970,-0.02,-0.03,0.0,0.03
2022-08-11 17:49:43.3080,0.01,-0.05,0.01,0.05
2022-08-11 17:49:43.3180,0.06,-0.04,0.01,0.07
2022-08-11 17:49:43.3260,0.09,-0.02,-0.01,0.09
2022-08-11 17:49:43.3360,0.07,0.01,-0.03,0.07
2022-08-11 17:49:43.3470,0.01,0.04,-0.03,0.05
2022-08-11 17:49:43.3580,-0.03,0.07,-0.01,0.07
2022-08-11 17:49:43.3660,-0.04,0.1,0.02,0.1
2022-08-11 17:49:43.3760,-0.02,0.14,0.04,0.14
2022-08-11 17:49:43.3930,0.01,0.14,0.02,0.14
2022-08-11 17:49:43.3970,0.05,0.11,0.02,0.12
2022-08-11 17:49:43.4060,0.09,0.06,0.03,0.11
2022-08-11 17:49:43.4170,0.13,0.03,0.01,0.13
2022-08-11 17:49:43.4270,0.18,0.03,0.0,0.18
2022-08-11 17:49:43.4350,0.18,0.04,0.02,0.18
2022-08-11 17:49:43.4460,0.13,0.04,0.02,0.13
2022-08-11 17:49:43.4560,0.08,0.04,0.04,0.09
2022-08-11 17:49:43.4650,0.04,0.03,0.01,0.05
2022-08-11 17:49:43.4750,0.01,0.0,-0.02,0.02
2022-08-11 17:49:43.4930,0.02,-0.01,-0.01,0.02
2022-08-11 17:49:43.4970,0.08,0.01,0.0,0.08
2022-08-11 17:49:43.5050,0.12,0.06,-0.01,0.13
2022-08-11 17:49:43.5150,0.11,0.06,-0.03,0.12
2022-08-11 17:49:43.5260,0.07,0.07,-0.04,0.1
2022-08-11 17:49:43.5360,-0.01,0.09,-0.01,0.09
2022-08-11 17:49:43.5450,-0.05,0.08,0.01,0.09
2022-08-11 17:49:43.5550,-0.06,0.07,0.01,0.09
2022-08-11 17:49:43.5650,-0.03,0.05,0.01,0.05
2022-08-11 17:49:43.5760,0.02,0.04,-0.01,0.04
2022-08-11 17:49:43.5980,0.03,0.04,-0.04,0.06
2022-08-11 17:49:43.6010,-0.01,0.05,-0.06,0.07
2022-08-11 17:49:43.6060,-0.06,0.06,-0.06,0.1
2022-08-11 17:49:43.6140,-0.09,0.07,-0.02,0.11
2022-08-11 17:49:43.6250,-0.09,0.05,0.02,0.1
2022-08-11 17:49:43.6350,-0.09,0.03,0.04,0.1
2022-08-11 17:49:43.6450,-0.09,0.02,0.07,0.11
2022-08-11 17:49:43.6540,-0.05,0.02,0.03,0.06
2022-08-11 17:49:43.6640,-0.04,0.05,-0.03,0.07
2022-08-11 17:49:43.6750,-0.07,0.08,-0.05,0.11
2022-08-11 17:49:43.6930,-0.07,0.08,-0.05,0.11
2022-08-11 17:49:43.6950,-0.06,0.08,-0.01,0.1
2022-08-11 17:49:43.7040,-0.02,0.08,0.03,0.08
2022-08-11 17:49:43.7150,0.01,0.05,0.03,0.05
2022-08-11 17:49:43.7240,0.02,0.05,0.0,0.05
2022-08-11 17:49:43.7340,0.03,0.09,-0.03,0.09
2022-08-11 17:49:43.7430,0.04,0.1,-0.04,0.11
2022-08-11 17:49:43.7530,0.04,0.1,-0.02,0.1
2022-08-11 17:49:43.7640,0.05,0.07,-0.01,0.08
2022-08-11 17:49:43.7740,0.09,0.02,0.0,0.09
2022-08-11 17:49:43.7840,0.11,0.0,0.01,0.11
2022-08-11 17:49:43.8020,0.12,0.0,0.0,0.12
2022-08-11 17:49:43.8060,0.1,0.01,-0.04,0.1
2022-08-11 17:49:43.8130,0.08,0.02,-0.03,0.08
2022-08-11 17:49:43.8230,0.05,0.02,-0.02,0.05
2022-08-11 17:49:43.8340,0.03,0.04,-0.05,0.07
2022-08-11 17:49:43.8420,-0.01,0.04,-0.08,0.09
2022-08-11 17:49:43.8530,-0.04,0.06,-0.05,0.08
2022-08-11 17:49:43.8630,-0.04,0.04,0.0,0.05
2022-08-11 17:49:43.8720,-0.01,0.03,0.04,0.05
2022-08-11 17:49:43.8840,0.0,0.06,0.03,0.06
2022-08-11 17:49:43.8960,0.02,0.11,-0.01,0.11
2022-08-11 17:49:43.9030,0.02,0.13,-0.03,0.13
2022-08-11 17:49:43.9120,0.0,0.1,-0.03,0.1
2022-08-11 17:49:43.9240,-0.02,0.04,-0.02,0.04
2022-08-11 17:49:43.9330,-0.01,-0.01,-0.01,0.01
2022-08-11 17:49:43.9430,0.01,-0.02,0.03,0.03
2022-08-11 17:49:43.9520,0.04,-0.01,0.02,0.04
2022-08-11 17:49:43.9630,0.06,0.01,0.03,0.06
2022-08-11 17:49:43.9720,0.06,0.03,0.01,0.06
2022-08-11 17:49:43.9820,0.06,0.04,-0.03,0.07
2022-08-11 17:49:43.9960,0.03,0.05,-0.04,0.07
2022-08-11 17:49:44.0010,0.0,0.04,-0.04,0.05
2022-08-11 17:49:44.0120,0.0,0.04,-0.01,0.04
2022-08-11 17:49:44.0230,0.02,0.05,0.03,0.06
2022-08-11 17:49:44.0310,0.04,0.02,0.05,0.06
2022-08-11 17:49:44.0420,0.05,0.02,0.04,0.06
2022-08-11 17:49:44.0510,0.05,0.04,0.02,0.06
2022-08-11 17:49:44.0620,0.05,0.03,-0.01,0.05
2022-08-11 17:49:44.0720,0.05,0.02,-0.03,0.06
2022-08-11 17:49:44.0810,0.05,0.03,-0.02,0.06
2022-08-11 17:49:44.0960,0.03,0.02,0.0,0.03
2022-08-11 17:49:44.1020,0.03,0.03,0.01,0.04
2022-08-11 17:49:44.1120,0.02,0.03,0.04,0.05
2022-08-11 17:49:44.1230,-0.01,0.07,0.05,0.08
2022-08-11 17:49:44.1310,-0.04,0.08,0.05,0.1
2022-08-11 17:49:44.1410,-0.08,0.08,0.02,0.11
2022-08-11 17:49:44.1500,-0.1,0.09,-0.03,0.13
2022-08-11 17:49:44.1610,-0.12,0.1,-0.03,0.15
2022-08-11 17:49:44.1700,-0.11,0.08,-0.03,0.13
2022-08-11 17:49:44.1810,-0.08,0.06,0.0,0.1
2022-08-11 17:49:44.1980,-0.05,0.04,0.01,0.06
2022-08-11 17:49:44.2020,-0.03,0.01,0.03,0.04
2022-08-11 17:49:44.2110,-0.02,-0.01,0.03,0.03
2022-08-11 17:49:44.2220,-0.01,0.0,0.01,0.01
2022-08-11 17:49:44.2310,0.0,0.04,-0.01,0.04
2022-08-11 17:49:44.2410,0.02,0.12,-0.01,0.12
2022-08-11 17:49:44.2490,0.02,0.18,-0.03,0.18
2022-08-11 17:49:44.2590,0.02,0.17,-0.03,0.17
2022-08-11 17:49:44.2700,0.03,0.1,0.0,0.1
2022-08-11 17:49:44.2800,0.04,0.03,0.0,0.05
2022-08-11 17:49:44.2970,0.03,0.01,0.02,0.03
2022-08-11 17:49:44.3010,0.03,0.04,0.05,0.07
2022-08-11 17:49:44.3110,0.08,0.06,0.07,0.12
2022-08-11 17:49:44.3210,0.12,0.08,0.05,0.15
2022-08-11 17:49:44.3290,0.15,0.1,-0.01,0.18
2022-08-11 17:49:44.3400,0.14,0.08,-0.06,0.17
2022-08-11 17:49:44.3500,0.11,0.06,-0.08,0.14
2022-08-11 17:49:44.3590,0.1,0.04,-0.08,0.13
2022-08-11 17:49:44.3690,0.09,0.0,-0.05,0.1
2022-08-11 17:49:44.3780,0.09,-0.03,-0.03,0.09
2022-08-11 17:49:44.3980,0.08,-0.05,-0.01,0.09
2022-08-11 17:49:44.4020,0.08,-0.04,0.0,0.08
2022-08-11 17:49:44.4080,0.1,0.0,0.0,0.1
2022-08-11 17:49:44.4200,0.12,0.05,-0.03,0.13
2022-08-11 17:49:44.4290,0.13,0.06,-0.05,0.15
2022-08-11 17:49:44.4390,0.13,0.08,-0.07,0.16
2022-08-11 17:49:44.4480,0.1,0.09,-0.09,0.16
2022-08-11 17:49:44.4590,0.05,0.1,-0.06,0.12
2022-08-11 17:49:44.4680,0.01,0.11,-0.05,0.12
2022-08-11 17:49:44.4780,-0.02,0.07,-0.04,0.08
2022-08-11 17:49:44.4980,-0.06,0.03,-0.02,0.06
2022-08-11 17:49:44.5020,-0.07,0.0,-0.02,0.07
2022-08-11 17:49:44.5080,-0.08,-0.02,-0.03,0.08
2022-08-11 17:49:44.5180,-0.07,-0.03,-0.03,0.08
2022-08-11 17:49:44.5290,-0.05,0.01,-0.06,0.07
2022-08-11 17:49:44.5390,-0.04,0.06,-0.09,0.11
2022-08-11 17:49:44.5470,-0.07,0.1,-0.08,0.14
2022-08-11 17:49:44.5580,-0.13,0.11,-0.06,0.18
2022-08-11 17:49:44.5680,-0.19,0.09,-0.01,0.21
2022-08-11 17:49:44.5780,-0.22,0.06,0.01,0.22
2022-08-11 17:49:44.5880,-0.23,0.03,0.04,0.23
2022-08-11 17:49:44.6010,-0.2,-0.02,0.05,0.2
2022-08-11 17:49:44.6070,-0.13,-0.05,0.06,0.15
2022-08-11 17:49:44.6180,-0.06,-0.07,0.05,0.1
2022-08-11 17:49:44.6270,-0.01,-0.07,0.02,0.07
2022-08-11 17:49:44.6370,0.02,-0.03,-0.01,0.03
2022-08-11 17:49:44.6470,0.02,0.04,0.0,0.04
2022-08-11 17:49:44.6570,-0.01,0.09,0.04,0.09
2022-08-11 17:49:44.6680,-0.04,0.1,0.08,0.13
2022-08-11 17:49:44.6770,-0.04,0.07,0.1,0.12
2022-08-11 17:49:44.6860,0.01,0.01,0.1,0.1
2022-08-11 17:49:44.7000,0.05,-0.04,0.08,0.1
2022-08-11 17:49:44.7060,0.11,-0.04,0.05,0.12
2022-08-11 17:49:44.7160,0.18,0.01,0.04,0.18
2022-08-11 17:49:44.7260,0.23,0.09,0.03,0.24
2022-08-11 17:49:44.7370,0.22,0.17,0.03,0.27
2022-08-11 17:49:44.7460,0.18,0.21,0.03,0.27
2022-08-11 17:49:44.7570,0.17,0.2,0.06,0.26
2022-08-11 17:49:44.7660,0.15,0.16,0.08,0.23
2022-08-11 17:49:44.7770,0.14,0.13,0.05,0.19
2022-08-11 17:49:44.7870,0.17,0.16,0.02,0.23
2022-08-11 17:49:44.8010,0.15,0.17,0.03,0.22
2022-08-11 17:49:44.8060,0.14,0.15,0.08,0.22
2022-08-11 17:49:44.8160,0.17,0.12,0.11,0.23
2022-08-11 17:49:44.8260,0.22,0.05,0.12,0.25
2022-08-11 17:49:44.8360,0.26,0.02,0.09,0.27
2022-08-11 17:49:44.8450,0.29,0.06,0.08,0.3
2022-08-11 17:49:44.8550,0.31,0.09,0.1,0.33
2022-08-11 17:49:44.8650,0.28,0.08,0.14,0.32
2022-08-11 17:49:44.8750,0.21,0.08,0.13,0.25
2022-08-11 17:49:44.8850,0.11,0.04,0.09,0.14
2022-08-11 17:49:44.9000,0.01,0.04,0.09,0.09
2022-08-11 17:49:44.9050,-0.04,0.09,0.1,0.14
2022-08-11 17:49:44.9150,-0.05,0.12,0.12,0.17
2022-08-11 17:49:44.9250,-0.02,0.1,0.11,0.15
2022-08-11 17:49:44.9360,0.05,0.06,0.1,0.12
2022-08-11 17:49:44.9460,0.13,0.01,0.08,0.15
2022-08-11 17:49:44.9550,0.23,-0.04,0.02,0.23
2022-08-11 17:49:44.9650,0.27,-0.03,-0.06,0.27
2022-08-11 17:49:44.9740,0.24,0.0,-0.12,0.26
2022-08-11 17:49:44.9850,0.16,0.03,-0.13,0.2
2022-08-11 17:49:45.0020,0.09,0.07,-0.09,0.14
2022-08-11 17:49:45.0060,0.07,0.11,-0.06,0.14
2022-08-11 17:49:45.0150,0.07,0.17,-0.07,0.19
2022-08-11 17:49:45.0250,0.09,0.28,-0.11,0.31
2022-08-11 17:49:45.0350,0.06,0.36,-0.18,0.4
2022-08-11 17:49:45.0450,0.04,0.33,-0.23,0.4
2022-08-11 17:49:45.0550,0.02,0.25,-0.26,0.36
2022-08-11 17:49:45.0640,0.06,0.2,-0.28,0.34
2022-08-11 17:49:45.0750,0.11,0.12,-0.31,0.35
2022-08-11 17:49:45.0830,0.15,0.08,-0.34,0.38
2022-08-11 17:49:45.1020,0.1,0.17,-0.36,0.41
2022-08-11 17:49:45.1060,-0.01,0.39,-0.41,0.56
2022-08-11 17:49:45.1140,-0.11,0.55,-0.41,0.69
2022-08-11 17:49:45.1250,-0.17,0.54,-0.34,0.66
2022-08-11 17:49:45.1340,-0.11,0.3,-0.24,0.39
2022-08-11 17:49:45.1430,0.06,-0.05,-0.22,0.23
2022-08-11 17:49:45.1540,0.3,-0.35,-0.26,0.52
2022-08-11 17:49:45.1640,0.47,-0.45,-0.35,0.73
2022-08-11 17:49:45.1730,0.54,-0.38,-0.45,0.79
2022-08-11 17:49:45.1840,0.53,-0.25,-0.5,0.77
2022-08-11 17:49:45.2040,0.43,-0.13,-0.52,0.68
2022-08-11 17:49:45.2070,0.33,-0.05,-0.5,0.6
2022-08-11 17:49:45.2120,0.31,-0.02,-0.46,0.55
2022-08-11 17:49:45.2240,0.38,-0.06,-0.44,0.58
2022-08-11 17:49:45.2340,0.54,-0.14,-0.41,0.69
2022-08-11 17:49:45.2430,0.76,-0.22,-0.39,0.88
2022-08-11 17:49:45.2520,0.98,-0.3,-0.4,1.1
2022-08-11 17:49:45.2620,1.16,-0.4,-0.43,1.3
2022-08-11 17:49:45.2730,1.25,-0.48,-0.5,1.42
2022-08-11 17:49:45.2820,1.21,-0.48,-0.61,1.43
2022-08-11 17:49:45.3030,1.08,-0.4,-0.72,1.35
2022-08-11 17:49:45.3060,0.83,-0.18,-0.79,1.15
2022-08-11 17:49:45.3130,0.59,0.03,-0.8,0.99
2022-08-11 17:49:45.3220,0.46,0.16,-0.76,0.9
2022-08-11 17:49:45.3320,0.39,0.15,-0.78,0.88
2022-08-11 17:49:45.3420,0.42,0.08,-0.88,0.97
2022-08-11 17:49:45.3520,0.5,0.02,-0.98,1.1
2022-08-11 17:49:45.3620,0.6,0.0,-1.02,1.18
2022-08-11 17:49:45.3720,0.69,-0.01,-1.0,1.21
2022-08-11 17:49:45.3830,0.79,-0.08,-0.95,1.23
2022-08-11 17:49:45.3910,0.88,-0.23,-0.91,1.28
2022-08-11 17:49:45.4050,0.67,-0.28,-0.99,1.22
2022-08-11 17:49:45.4120,0.61,-0.31,-1.02,1.22
2022-08-11 17:49:45.4210,0.59,-0.36,-1.06,1.26
2022-08-11 17:49:45.4310,0.52,-0.3,-1.15,1.29
2022-08-11 17:49:45.4420,0.45,-0.1,-1.19,1.27
2022-08-11 17:49:45.4520,0.32,0.1,-1.13,1.17
2022-08-11 17:49:45.4620,0.19,0.13,-1.01,1.03
2022-08-11 17:49:45.4720,0.11,0.02,-0.88,0.88
2022-08-11 17:49:45.4800,0.06,-0.16,-0.83,0.84
2022-08-11 17:49:45.4910,0.06,-0.36,-0.79,0.87
2022-08-11 17:49:45.5050,0.11,-0.54,-0.62,0.82
2022-08-11 17:49:45.5100,0.0,-0.7,-0.3,0.76
2022-08-11 17:49:45.5220,-0.04,-0.87,-0.07,0.87
2022-08-11 17:49:45.5310,0.17,-1.03,-0.11,1.04
2022-08-11 17:49:45.5400,0.25,-0.97,-0.35,1.06
2022-08-11 17:49:45.5500,0.2,-0.55,-0.54,0.79
2022-08-11 17:49:45.5610,0.11,-0.02,-0.44,0.45
2022-08-11 17:49:45.5700,0.06,0.27,-0.03,0.27
2022-08-11 17:49:45.5810,0.04,0.19,0.37,0.41
2022-08-11 17:49:45.5910,-0.01,-0.13,0.59,0.6
2022-08-11 17:49:45.6050,0.04,-0.37,0.86,0.93
2022-08-11 17:49:45.6100,0.33,-0.38,1.16,1.26
2022-08-11 17:49:45.6200,0.67,-0.13,1.48,1.62
2022-08-11 17:49:45.6300,0.83,0.2,1.73,1.92
2022-08-11 17:49:45.6410,0.82,0.4,1.9,2.1
2022-08-11 17:49:45.6490,0.82,0.47,1.82,2.05
2022-08-11 17:49:45.6590,0.84,0.56,1.52,1.82
2022-08-11 17:49:45.6690,0.92,0.78,1.37,1.82
2022-08-11 17:49:45.6800,0.99,1.14,1.59,2.19
2022-08-11 17:49:45.6890,0.89,1.44,2.02,2.63
2022-08-11 17:49:45.7050,0.69,1.43,2.4,2.87
2022-08-11 17:49:45.7090,0.64,1.12,2.42,2.74
2022-08-11 17:49:45.7200,0.73,0.84,1.99,2.28
2022-08-11 17:49:45.7290,0.86,0.73,1.35,1.75
2022-08-11 17:49:45.7400,0.99,0.78,0.95,1.57
2022-08-11 17:49:45.7510,0.92,0.99,0.65,1.49
2022-08-11 17:49:45.7600,1.01,1.28,0.54,1.71
2022-08-11 17:49:45.7690,1.24,1.51,0.72,2.08
2022-08-11 17:49:45.7790,1.34,1.61,0.8,2.24
2022-08-11 17:49:45.7900,1.29,1.64,0.67,2.19
2022-08-11 17:49:45.8080,1.27,1.45,0.43,1.97
2022-08-11 17:49:45.8130,1.37,0.98,0.24,1.7
2022-08-11 17:49:45.8190,1.43,0.49,0.2,1.52
2022-08-11 17:49:45.8280,1.44,0.16,0.21,1.46
2022-08-11 17:49:45.8400,1.54,-0.06,0.23,1.55
2022-08-11 17:49:45.8500,1.76,-0.25,0.21,1.79
2022-08-11 17:49:45.8590,1.94,-0.33,0.13,1.97
2022-08-11 17:49:45.8680,2.07,-0.36,0.04,2.1
2022-08-11 17:49:45.8790,2.14,-0.37,-0.02,2.17
2022-08-11 17:49:45.8880,2.08,-0.39,-0.13,2.12
2022-08-11 17:49:45.9080,1.88,-0.41,-0.08,1.92
2022-08-11 17:49:45.9130,1.69,-0.43,0.01,1.74
2022-08-11 17:49:45.9180,1.58,-0.44,0.05,1.64
2022-08-11 17:49:45.9290,1.37,-0.23,-0.01,1.38
2022-08-11 17:49:45.9380,1.21,0.14,-0.23,1.23
2022-08-11 17:49:45.9490,1.22,0.56,-0.47,1.42
2022-08-11 17:49:45.9570,1.25,0.99,-0.47,1.66
2022-08-11 17:49:45.9680,1.24,1.4,-0.44,1.92
2022-08-11 17:49:45.9770,1.58,1.67,-0.08,2.3
2022-08-11 17:49:45.9890,2.03,1.8,0.46,2.75
2022-08-11 17:49:46.0110,2.78,1.78,0.96,3.43
2022-08-11 17:49:46.0140,3.87,1.68,1.36,4.43
2022-08-11 17:49:46.0180,5.12,1.69,1.54,5.6
2022-08-11 17:49:46.0270,6.12,1.79,1.47,6.54
2022-08-11 17:49:46.0380,7.11,2.12,1.1,7.5
2022-08-11 17:49:46.0470,7.95,2.53,0.83,8.38
2022-08-11 17:49:46.0570,8.29,2.92,0.94,8.83
2022-08-11 17:49:46.0690,7.89,3.06,1.26,8.55
2022-08-11 17:49:46.0770,6.73,2.68,1.76,7.45
2022-08-11 17:49:46.0870,5.94,2.12,2.16,6.66
2022-08-11 17:49:46.1090,5.47,1.78,2.19,6.15
2022-08-11 17:49:46.1120,4.5,1.14,1.95,5.03
2022-08-11 17:49:46.1160,3.27,0.13,1.58,3.63
2022-08-11 17:49:46.1270,2.24,-0.71,0.94,2.53
2022-08-11 17:49:46.1360,1.37,-1.04,0.07,1.72
2022-08-11 17:49:46.1460,0.51,-0.79,-0.95,1.33
2022-08-11 17:49:46.1570,-0.52,0.15,-1.92,1.99
2022-08-11 17:49:46.1670,-1.6,1.88,-2.54,3.54
2022-08-11 17:49:46.1760,-2.35,4.19,-2.71,5.51
2022-08-11 17:49:46.1860,-2.82,6.57,-2.22,7.48
2022-08-11 17:49:46.1970,-3.83,8.36,-1.2,9.27
2022-08-11 17:49:46.2110,-5.12,8.5,-0.06,9.92
2022-08-11 17:49:46.2150,-5.41,6.66,0.37,8.58
2022-08-11 17:49:46.2260,-4.42,3.86,0.07,5.86
2022-08-11 17:49:46.2370,-2.82,1.71,-0.31,3.31
2022-08-11 17:49:46.2450,-1.3,0.7,-0.69,1.62
2022-08-11 17:49:46.2550,0.14,0.56,-0.9,1.06
2022-08-11 17:49:46.2670,1.43,0.78,-1.0,1.91
2022-08-11 17:49:46.2750,2.48,0.88,-1.05,2.83
2022-08-11 17:49:46.2860,3.3,0.56,-0.91,3.46
2022-08-11 17:49:46.2950,3.54,0.01,-0.6,3.59
2022-08-11 17:49:46.3110,3.12,-0.48,-0.39,3.18
2022-08-11 17:49:46.3150,2.18,-0.8,-0.16,2.32
2022-08-11 17:49:46.3260,1.1,-0.98,0.17,1.48
2022-08-11 17:49:46.3350,0.03,-1.02,0.63,1.19
2022-08-11 17:49:46.3460,-0.96,-1.16,1.07,1.84
2022-08-11 17:49:46.3560,-1.77,-1.42,1.63,2.79
2022-08-11 17:49:46.3650,-2.17,-2.15,1.87,3.58
2022-08-11 17:49:46.3740,-2.5,-2.96,1.79,4.26
2022-08-11 17:49:46.3840,-2.62,-4.06,1.74,5.13
2022-08-11 17:49:46.3960,-2.76,-5.28,1.5,6.14
2022-08-11 17:49:46.4130,-2.78,-6.51,1.25,7.18
2022-08-11 17:49:46.4160,-3.08,-7.71,0.54,8.31
2022-08-11 17:49:46.4240,-3.03,-8.65,-0.05,9.16
2022-08-11 17:49:46.4350,-2.83,-8.86,-0.21,9.3
2022-08-11 17:49:46.4450,-2.79,-7.33,-0.49,7.85
2022-08-11 17:49:46.4540,-2.32,-4.75,-0.46,5.3
2022-08-11 17:49:46.4640,-1.83,-2.78,-0.33,3.34
2022-08-11 17:49:46.4730,-1.31,-1.48,-0.41,2.01
2022-08-11 17:49:46.4850,-0.72,-0.52,-0.32,0.94
2022-08-11 17:49:46.4950,0.02,0.52,-0.01,0.52
2022-08-11 17:49:46.5090,0.86,1.65,0.27,1.88
2022-08-11 17:49:46.5130,1.78,2.39,0.26,2.99
2022-08-11 17:49:46.5240,2.7,2.46,-0.06,3.65
2022-08-11 17:49:46.5340,3.59,2.25,-0.42,4.25
2022-08-11 17:49:46.5430,4.58,2.3,-0.47,5.14
2022-08-11 17:49:46.5530,5.67,2.87,-0.31,6.36
2022-08-11 17:49:46.5630,6.65,3.7,-0.28,7.61
2022-08-11 17:49:46.5730,7.15,4.43,-0.56,8.42
2022-08-11 17:49:46.5850,6.82,4.13,-0.62,7.99
2022-08-11 17:49:46.5930,5.82,2.07,-0.1,6.17
2022-08-11 17:49:46.6150,4.31,-0.3,-0.5,4.34
2022-08-11 17:49:46.6180,3.04,-1.54,-2.0,3.95
2022-08-11 17:49:46.6220,2.85,0.88,-2.95,4.19
2022-08-11 17:49:46.6330,3.01,4.45,-0.68,5.41
2022-08-11 17:49:46.6440,0.65,6.11,1.9,6.43
2022-08-11 17:49:46.6520,-5.72,9.32,3.58,11.5
2022-08-11 17:49:46.6630,-14.59,12.17,5.21,19.7
2022-08-11 17:49:46.6740,-20.25,9.6,7.02,23.48
2022-08-11 17:49:46.6820,-16.99,2.29,7.23,18.6
2022-08-11 17:49:46.6920,-11.29,-2.71,4.11,12.31
2022-08-11 17:49:46.7110,-7.53,-4.95,0.3,9.01
2022-08-11 17:49:46.7140,-4.92,-4.19,-3.3,7.25
2022-08-11 17:49:46.7220,-4.26,-3.26,-4.55,7.03
2022-08-11 17:49:46.7330,-4.45,-4.26,-3.14,6.91
2022-08-11 17:49:46.7420,-4.29,-5.56,-0.55,7.04
2022-08-11 17:49:46.7510,-4.09,-5.82,1.48,7.26
2022-08-11 17:49:46.7630,-3.87,-4.76,2.36,6.57
2022-08-11 17:49:46.7730,-2.87,-2.25,3.8,5.26
2022-08-11 17:49:46.7830,-1.2,0.79,5.79,5.96
2022-08-11 17:49:46.7910,0.21,3.09,6.61,7.29
2022-08-11 17:49:46.8150,1.66,4.38,4.51,6.5
2022-08-11 17:49:46.8180,3.59,4.79,0.34,5.99
2022-08-11 17:49:46.8220,5.24,3.23,-2.73,6.73
2022-08-11 17:49:46.8310,5.26,0.62,-3.87,6.55
2022-08-11 17:49:46.8420,3.55,-0.92,-3.11,4.8
2022-08-11 17:49:46.8510,1.74,-1.39,-1.27,2.56
2022-08-11 17:49:46.8610,0.52,-1.78,-0.24,1.86
2022-08-11 17:49:46.8710,-0.17,-2.09,0.17,2.1
2022-08-11 17:49:46.8820,-0.59,-2.17,0.24,2.26
2022-08-11 17:49:46.8900,-0.83,-2.05,0.3,2.23
2022-08-11 17:49:46.9140,-0.72,-1.92,0.64,2.14
2022-08-11 17:49:46.9160,-0.41,-1.77,0.9,2.02
2022-08-11 17:49:46.9210,0.3,-1.48,0.65,1.64
2022-08-11 17:49:46.9310,1.68,-1.31,-0.11,2.13
2022-08-11 17:49:46.9420,3.41,-1.43,-0.87,3.79
2022-08-11 17:49:46.9510,4.79,-1.65,-0.92,5.14
2022-08-11 17:49:46.9600,5.41,-1.87,-0.25,5.72
2022-08-11 17:49:46.9700,5.18,-2.08,0.63,5.61
2022-08-11 17:49:46.9800,4.43,-2.39,0.83,5.1
2022-08-11 17:49:46.9910,3.02,-2.3,0.35,3.81
2022-08-11 17:49:47.0020,1.29,-1.65,-0.31,2.11
2022-08-11 17:49:47.0150,-0.35,-0.57,-0.43,0.79
2022-08-11 17:49:47.0200,-0.99,0.58,0.16,1.15
2022-08-11 17:49:47.0300,-0.18,1.45,1.31,1.96
2022-08-11 17:49:47.0400,1.57,1.85,2.61,3.56
2022-08-11 17:49:47.0510,3.63,1.87,3.34,5.27
2022-08-11 17:49:47.0600,6.06,1.74,3.4,7.16
2022-08-11 17:49:47.0690,7.9,1.95,2.61,8.54
2022-08-11 17:49:47.0810,8.53,2.67,1.82,9.12
2022-08-11 17:49:47.0890,7.83,3.62,1.59,8.77
2022-08-11 17:49:47.0990,5.97,4.08,1.8,7.45
2022-08-11 17:49:47.1150,4.31,3.94,2.06,6.19
2022-08-11 17:49:47.1180,3.73,3.57,2.22,5.62
2022-08-11 17:49:47.1290,3.6,2.73,2.46,5.14
2022-08-11 17:49:47.1390,3.35,1.18,2.33,4.24
2022-08-11 17:49:47.1490,2.95,-0.64,1.65,3.44
2022-08-11 17:49:47.1600,2.0,-2.37,0.85,3.21
2022-08-11 17:49:47.1700,0.59,-3.37,0.05,3.42
2022-08-11 17:49:47.1780,-1.31,-2.79,-1.06,3.25
2022-08-11 17:49:47.1880,-3.5,0.39,-2.8,4.49
2022-08-11 17:49:47.2000,-4.94,6.33,-4.68,9.29
2022-08-11 17:49:47.2140,-5.8,11.52,-4.19,13.56
2022-08-11 17:49:47.2180,-6.42,12.44,-3.65,14.46
2022-08-11 17:49:47.2290,-5.7,13.73,-3.93,15.37
2022-08-11 17:49:47.2390,-5.05,14.05,-3.52,15.33
2022-08-11 17:49:47.2500,-4.22,10.46,-2.99,11.66
2022-08-11 17:49:47.2590,-2.22,5.27,-2.12,6.09
2022-08-11 17:49:47.2680,-0.41,1.58,-0.82,1.82
2022-08-11 17:49:47.2780,0.98,-0.33,0.07,1.03
2022-08-11 17:49:47.2880,2.11,-0.98,0.14,2.33
2022-08-11 17:49:47.2980,2.78,-1.58,-0.36,3.21
2022-08-11 17:49:47.3130,3.29,-2.38,-0.52,4.09
2022-08-11 17:49:47.3170,3.69,-3.38,-0.4,5.02
2022-08-11 17:49:47.3270,3.31,-4.44,-0.08,5.53
2022-08-11 17:49:47.3390,2.31,-5.27,0.36,5.76
2022-08-11 17:49:47.3480,0.79,-5.55,0.6,5.63
2022-08-11 17:49:47.3570,-1.22,-5.52,0.77,5.7
2022-08-11 17:49:47.3670,-2.97,-5.35,0.99,6.19
2022-08-11 17:49:47.3790,-4.22,-5.09,1.15,6.71
2022-08-11 17:49:47.3870,-4.92,-4.94,1.23,7.07
2022-08-11 17:49:47.3970,-5.2,-5.01,1.32,7.34
2022-08-11 17:49:47.4150,-5.28,-5.41,1.25,7.66
2022-08-11 17:49:47.4190,-5.29,-5.92,1.11,8.01
2022-08-11 17:49:47.4270,-5.02,-6.29,1.07,8.11
2022-08-11 17:49:47.4370,-4.67,-6.0,0.91,7.65
2022-08-11 17:49:47.4460,-4.14,-5.34,0.48,6.77
2022-08-11 17:49:47.4580,-3.38,-4.46,-0.01,5.59
2022-08-11 17:49:47.4670,-2.49,-3.42,-0.46,4.25
2022-08-11 17:49:47.4760,-1.56,-2.36,-0.81,2.94
2022-08-11 17:49:47.4860,-0.68,-1.2,-1.05,1.73
2022-08-11 17:49:47.4960,0.24,0.21,-1.04,1.08
2022-08-11 17:49:47.5180,1.38,1.78,-0.61,2.33
2022-08-11 17:49:47.5210,2.67,3.04,-0.22,4.05
2022-08-11 17:49:47.5260,3.77,3.53,-0.66,5.2
2022-08-11 17:49:47.5360,4.47,3.55,-1.39,5.87
2022-08-11 17:49:47.5470,5.0,3.47,-1.17,6.19
2022-08-11 17:49:47.5560,5.85,3.51,-0.01,6.82
2022-08-11 17:49:47.5660,7.04,4.08,0.45,8.14
2022-08-11 17:49:47.5770,7.91,4.7,-0.32,9.2
2022-08-11 17:49:47.5860,7.78,4.16,-1.43,8.93
2022-08-11 17:49:47.5960,6.24,3.27,-2.23,7.38
2022-08-11 17:49:47.6190,4.29,3.87,-3.28,6.64
2022-08-11 17:49:47.6220,3.2,6.08,-3.94,7.92
2022-08-11 17:49:47.6250,2.52,7.85,-1.52,8.38
2022-08-11 17:49:47.6350,0.61,9.06,2.44,9.4
2022-08-11 17:49:47.6460,-4.08,10.87,4.17,12.33
2022-08-11 17:49:47.6550,-10.5,9.85,5.01,15.24
2022-08-11 17:49:47.6650,-14.93,4.5,5.67,16.59
2022-08-11 17:49:47.6750,-15.17,-1.71,5.21,16.13
2022-08-11 17:49:47.6850,-13.02,-5.74,3.83,14.73
2022-08-11 17:49:47.6950,-11.04,-7.79,1.47,13.59
2022-08-11 17:49:47.7170,-9.45,-8.69,-0.83,12.86
2022-08-11 17:49:47.7190,-7.43,-6.97,-1.3,10.27
2022-08-11 17:49:47.7240,-5.26,-3.93,-0.11,6.56
2022-08-11 17:49:47.7350,-3.87,-2.29,0.99,4.6
2022-08-11 17:49:47.7450,-3.01,-1.29,1.72,3.69
2022-08-11 17:49:47.7540,-2.58,-0.21,1.91,3.21
2022-08-11 17:49:47.7660,-2.25,0.82,1.72,2.94
2022-08-11 17:49:47.7740,-1.63,1.9,1.72,3.03
2022-08-11 17:49:47.7840,-0.31,2.58,2.69,3.74
2022-08-11 17:49:47.7960,1.88,2.27,3.55,4.61
2022-08-11 17:49:47.8040,4.12,1.05,2.39,4.87
2022-08-11 17:49:47.8210,5.15,-0.47,-0.54,5.19
2022-08-11 17:49:47.8240,4.18,-1.26,-2.85,5.21
2022-08-11 17:49:47.8340,2.33,-1.15,-2.66,3.71
2022-08-11 17:49:47.8440,0.87,-0.9,-1.27,1.78
2022-08-11 17:49:47.8550,-0.11,-0.97,-0.32,1.02
2022-08-11 17:49:47.8630,-0.71,-1.11,0.16,1.32
2022-08-11 17:49:47.8730,-0.99,-1.21,0.49,1.63
2022-08-11 17:49:47.8850,-0.89,-1.33,0.97,1.87
2022-08-11 17:49:47.8930,-0.44,-1.42,1.17,1.89
2022-08-11 17:49:47.9030,0.41,-1.3,0.58,1.48
2022-08-11 17:49:47.9190,1.76,-1.17,-0.41,2.15
2022-08-11 17:49:47.9230,3.34,-1.21,-1.13,3.72
2022-08-11 17:49:47.9340,4.5,-1.32,-1.15,4.82
2022-08-11 17:49:47.9430,5.05,-1.38,-0.49,5.25
2022-08-11 17:49:47.9530,4.97,-1.38,0.48,5.18
2022-08-11 17:49:47.9630,4.57,-1.57,0.86,4.9
2022-08-11 17:49:47.9730,3.75,-1.92,0.56,4.25
2022-08-11 17:49:47.9830,2.68,-2.0,0.18,3.34
2022-08-11 17:49:47.9930,1.85,-1.63,0.02,2.46
2022-08-11 17:49:48.0040,1.53,-0.85,0.27,1.77
2022-08-11 17:49:48.0170,1.92,0.1,0.79,2.07
2022-08-11 17:49:48.0230,2.95,0.77,1.69,3.48
2022-08-11 17:49:48.0330,4.09,1.28,2.51,4.96
2022-08-11 17:49:48.0430,5.55,1.67,2.88,6.47
2022-08-11 17:49:48.0520,6.96,2.25,2.56,7.74
2022-08-11 17:49:48.0630,7.22,3.31,1.82,8.14
2022-08-11 17:49:48.0730,5.93,4.5,1.21,7.54
2022-08-11 17:49:48.0840,4.2,5.03,1.31,6.68
2022-08-11 17:49:48.0920,3.32,4.47,1.73,5.83
2022-08-11 17:49:48.1020,3.14,3.21,1.98,4.9
2022-08-11 17:49:48.1180,3.37,2.02,2.1,4.45
2022-08-11 17:49:48.1220,3.33,0.87,1.8,3.88
2022-08-11 17:49:48.1320,2.47,-0.74,1.18,2.83
2022-08-11 17:49:48.1430,1.06,-2.47,0.81,2.8
2022-08-11 17:49:48.1520,-0.84,-3.07,0.17,3.18
2022-08-11 17:49:48.1610,-3.02,-2.04,-0.75,3.72
2022-08-11 17:49:48.1730,-5.28,1.07,-2.16,5.8
2022-08-11 17:49:48.1810,-6.46,6.42,-3.83,9.88
2022-08-11 17:49:48.1910,-6.45,10.8,-3.0,12.93
2022-08-11 17:49:48.2030,-6.41,11.11,-2.19,13.01
2022-08-11 17:49:48.2180,-5.51,11.95,-3.0,13.49
2022-08-11 17:49:48.2200,-4.3,12.8,-3.3,13.9
2022-08-11 17:49:48.2310,-3.41,10.85,-3.7,11.95
2022-08-11 17:49:48.2420,-1.66,6.38,-3.77,7.59
2022-08-11 17:49:48.2520,0.25,2.34,-3.0,3.81
2022-08-11 17:49:48.2620,1.6,-0.05,-1.76,2.37
2022-08-11 17:49:48.2700,2.73,-0.91,-0.97,3.03
2022-08-11 17:49:48.2820,3.44,-0.97,-0.63,3.62
2022-08-11 17:49:48.2900,3.7,-1.31,-0.29,3.93
2022-08-11 17:49:48.3000,3.7,-2.06,0.16,4.23
2022-08-11 17:49:48.3210,3.36,-3.07,0.59,4.58
2022-08-11 17:49:48.3230,2.54,-3.89,0.72,4.7
2022-08-11 17:49:48.3300,0.97,-4.25,0.69,4.41
2022-08-11 17:49:48.3410,-0.93,-4.32,0.76,4.48
2022-08-11 17:49:48.3500,-2.76,-4.21,0.87,5.1
2022-08-11 17:49:48.3600,-4.33,-4.13,1.07,6.07
2022-08-11 17:49:48.3700,-5.28,-4.33,1.22,6.93
2022-08-11 17:49:48.3820,-5.77,-4.82,1.26,7.62
2022-08-11 17:49:48.3910,-5.79,-5.53,1.22,8.09
2022-08-11 17:49:48.4000,-5.47,-6.55,1.12,8.6
2022-08-11 17:49:48.4230,-5.04,-7.72,1.04,9.27
2022-08-11 17:49:48.4250,-4.64,-8.64,0.85,9.84
2022-08-11 17:49:48.4290,-4.21,-8.96,0.24,9.9
2022-08-11 17:49:48.4390,-3.59,-8.28,-0.38,9.03
2022-08-11 17:49:48.4500,-2.85,-6.69,-0.85,7.32
2022-08-11 17:49:48.4600,-1.92,-4.62,-1.27,5.16
2022-08-11 17:49:48.4690,-0.79,-2.37,-1.5,2.91
2022-08-11 17:49:48.4810,0.44,0.23,-1.44,1.52
2022-08-11 17:49:48.4890,1.97,2.91,-0.99,3.65
2022-08-11 17:49:48.4990,3.64,4.44,-0.57,5.76
2022-08-11 17:49:48.5210,4.75,4.4,-0.68,6.51
2022-08-11 17:49:48.5220,5.42,4.57,-0.89,7.14
2022-08-11 17:49:48.5280,6.3,5.11,-0.28,8.11
2022-08-11 17:49:48.5390,7.56,6.16,0.32,9.75
2022-08-11 17:49:48.5500,8.77,7.29,-0.26,11.4
2022-08-11 17:49:48.5580,9.38,6.71,-1.64,11.64
2022-08-11 17:49:48.5680,8.26,3.74,-2.36,9.36
2022-08-11 17:49:48.5780,5.34,2.43,-2.77,6.48
2022-08-11 17:49:48.5880,3.31,4.18,-4.23,6.8
2022-08-11 17:49:48.6000,2.5,8.47,-4.41,9.87
2022-08-11 17:49:48.6090,0.96,11.29,-0.72,11.35
2022-08-11 17:49:48.6230,-3.04,11.91,2.83,12.61
2022-08-11 17:49:48.6280,-9.63,10.91,4.44,15.21
2022-08-11 17:49:48.6390,-14.75,5.65,6.32,17.01
2022-08-11 17:49:48.6470,-14.79,-0.79,6.82,16.3
2022-08-11 17:49:48.6590,-12.1,-5.23,6.2,14.56
2022-08-11 17:49:48.6670,-10.14,-8.07,4.28,13.64
2022-08-11 17:49:48.6780,-8.85,-10.13,1.48,13.53
2022-08-11 17:49:48.6880,-7.67,-9.79,-0.76,12.45
2022-08-11 17:49:48.6980,-5.43,-4.9,-0.82,7.35
2022-08-11 17:49:48.7080,-3.81,-1.48,0.95,4.19
2022-08-11 17:49:48.7240,-2.82,-0.36,2.3,3.65
2022-08-11 17:49:48.7270,-2.06,-0.06,2.5,3.23
2022-08-11 17:49:48.7380,-1.62,0.11,1.7,2.35
2022-08-11 17:49:48.7490,-1.56,0.22,0.41,1.62
2022-08-11 17:49:48.7570,-1.74,0.42,0.22,1.8
2022-08-11 17:49:48.7670,-1.76,0.65,1.36,2.31
2022-08-11 17:49:48.7780,-1.34,0.68,2.28,2.73
2022-08-11 17:49:48.7870,-0.58,0.51,1.95,2.09
2022-08-11 17:49:48.7970,-0.09,0.08,0.26,0.28
2022-08-11 17:49:48.8080,0.3,-0.6,-1.35,1.5
2022-08-11 17:49:48.8230,0.49,-1.12,-1.79,2.16
2022-08-11 17:49:48.8270,0.26,-1.14,-1.26,1.71
2022-08-11 17:49:48.8370,-0.04,-1.0,-0.18,1.01
2022-08-11 17:49:48.8470,-0.18,-0.91,0.76,1.19
2022-08-11 17:49:48.8570,0.05,-0.94,1.29,1.59
2022-08-11 17:49:48.8670,0.69,-1.05,1.48,1.94
2022-08-11 17:49:48.8770,1.49,-1.03,1.18,2.16
2022-08-11 17:49:48.8870,2.29,-0.9,0.46,2.5
2022-08-11 17:49:48.8960,3.08,-0.9,-0.36,3.22
2022-08-11 17:49:48.9080,3.74,-0.99,-0.85,3.96
2022-08-11 17:49:48.9220,4.19,-1.03,-0.61,4.35
2022-08-11 17:49:48.9250,4.56,-0.95,0.1,4.65
2022-08-11 17:49:48.9360,4.79,-0.68,0.68,4.88
2022-08-11 17:49:48.9470,4.75,-0.37,0.95,4.85
2022-08-11 17:49:48.9550,4.3,-0.15,0.85,4.38
2022-08-11 17:49:48.9670,3.5,-0.21,0.61,3.55
2022-08-11 17:49:48.9770,2.88,-0.4,0.38,2.93
2022-08-11 17:49:48.9870,2.68,-0.35,0.36,2.72
2022-08-11 17:49:48.9950,2.89,-0.12,0.76,2.99
2022-08-11 17:49:49.0050,3.59,0.03,1.55,3.91
2022-08-11 17:49:49.0240,4.6,0.2,2.3,5.14
2022-08-11 17:49:49.0270,5.81,0.57,2.67,6.41
2022-08-11 17:49:49.0360,6.88,1.41,2.68,7.51
2022-08-11 17:49:49.0460,7.19,2.66,2.19,7.97
2022-08-11 17:49:49.0550,6.55,4.21,1.23,7.88
2022-08-11 17:49:49.0650,5.26,5.52,0.8,7.66
2022-08-11 17:49:49.0760,4.24,6.1,1.35,7.55
2022-08-11 17:49:49.0850,3.72,5.48,2.14,6.96
2022-08-11 17:49:49.0960,3.53,3.39,2.47,5.48
2022-08-11 17:49:49.1050,3.58,0.85,1.97,4.17
2022-08-11 17:49:49.1230,2.87,-1.51,0.88,3.36
2022-08-11 17:49:49.1270,1.14,-3.36,-0.06,3.54
2022-08-11 17:49:49.1340,-1.24,-3.87,-1.16,4.22
2022-08-11 17:49:49.1440,-3.79,-1.97,-2.61,5.0
2022-08-11 17:49:49.1560,-6.1,3.3,-4.66,8.35
2022-08-11 17:49:49.1640,-7.46,11.1,-4.88,14.23
2022-08-11 17:49:49.1740,-8.44,12.99,-1.68,15.58
2022-08-11 17:49:49.1840,-8.12,12.91,-0.87,15.27
2022-08-11 17:49:49.1960,-7.18,13.55,-0.67,15.34
2022-08-11 17:49:49.2040,-5.89,11.75,-0.96,13.17
2022-08-11 17:49:49.2280,-3.11,6.79,-1.56,7.62
2022-08-11 17:49:49.2300,-0.3,2.5,-1.83,3.11
2022-08-11 17:49:49.2330,1.42,-0.04,-1.69,2.2
2022-08-11 17:49:49.2440,2.44,-1.07,-1.65,3.13
2022-08-11 17:49:49.2540,2.96,-1.62,-1.65,3.75
2022-08-11 17:49:49.2650,3.28,-2.44,-1.21,4.26
2022-08-11 17:49:49.2730,3.37,-3.47,-0.52,4.86
2022-08-11 17:49:49.2830,3.19,-4.54,0.23,5.55
2022-08-11 17:49:49.2940,2.59,-5.4,0.71,6.03
2022-08-11 17:49:49.3030,1.32,-5.86,0.7,6.04
2022-08-11 17:49:49.3250,-0.29,-6.02,0.69,6.06
2022-08-11 17:49:49.3270,-1.95,-5.87,0.75,6.23
2022-08-11 17:49:49.3330,-3.4,-5.52,1.01,6.56
2022-08-11 17:49:49.3430,-4.34,-5.21,1.35,6.91
2022-08-11 17:49:49.3540,-4.85,-5.08,1.49,7.17
2022-08-11 17:49:49.3620,-5.1,-5.34,0.93,7.44
2022-08-11 17:49:49.3720,-4.9,-5.88,0.66,7.68
2022-08-11 17:49:49.3830,-4.4,-6.43,0.82,7.83
2022-08-11 17:49:49.3920,-4.01,-6.41,0.99,7.62
2022-08-11 17:49:49.4020,-3.7,-5.66,0.78,6.8
2022-08-11 17:49:49.4140,-3.39,-4.38,0.13,5.54
2022-08-11 17:49:49.4290,-3.0,-2.86,-0.65,4.19
2022-08-11 17:49:49.4330,-2.28,-1.41,-1.14,2.91
2022-08-11 17:49:49.4420,-1.27,-0.1,-1.25,1.78
2022-08-11 17:49:49.4530,-0.09,1.04,-0.96,1.41
2022-08-11 17:49:49.4620,1.09,2.03,-0.54,2.36
2022-08-11 17:49:49.4730,2.22,2.86,-0.49,3.65
2022-08-11 17:49:49.4820,3.25,3.37,-1.17,4.82
2022-08-11 17:49:49.4910,4.3,3.29,-1.49,5.61
2022-08-11 17:49:49.5030,5.48,2.98,-0.57,6.26
2022-08-11 17:49:49.5110,6.97,2.99,0.86,7.63
2022-08-11 17:49:49.5260,8.43,3.58,1.29,9.24
2022-08-11 17:49:49.5320,9.26,3.82,0.19,10.01
2022-08-11 17:49:49.5420,8.43,2.38,-1.29,8.85
2022-08-11 17:49:49.5530,5.8,1.62,-2.36,6.46
2022-08-11 17:49:49.5610,3.45,3.23,-3.72,6.01
2022-08-11 17:49:49.5720,2.59,6.58,-4.27,8.26
2022-08-11 17:49:49.5810,1.53,8.47,-1.02,8.66
2022-08-11 17:49:49.5910,-1.42,9.91,2.12,10.23
2022-08-11 17:49:49.6010,-6.91,11.88,3.09,14.08
2022-08-11 17:49:49.6110,-12.9,9.82,4.7,16.87
2022-08-11 17:49:49.6250,-14.97,3.01,6.02,16.41
2022-08-11 17:49:49.6300,-13.15,-2.97,5.57,14.58
2022-08-11 17:49:49.6400,-11.04,-6.03,4.06,13.21
2022-08-11 17:49:49.6520,-9.55,-7.76,1.56,12.4
2022-08-11 17:49:49.6620,-8.13,-8.28,-0.91,11.63
2022-08-11 17:49:49.6700,-6.48,-5.72,-1.73,8.81
2022-08-11 17:49:49.6800,-5.6,-3.14,-0.99,6.49
2022-08-11 17:49:49.6920,-5.32,-2.15,0.21,5.74
2022-08-11 17:49:49.7000,-5.18,-1.51,1.36,5.56
2022-08-11 17:49:49.7100,-5.16,-0.58,2.02,5.57
2022-08-11 17:49:49.7250,-5.01,0.59,2.28,5.53
2022-08-11 17:49:49.7300,-4.2,1.96,3.26,5.66
2022-08-11 17:49:49.7400,-2.31,2.84,4.51,5.8
2022-08-11 17:49:49.7510,0.58,2.83,3.88,4.83
2022-08-11 17:49:49.7600,3.5,1.85,0.88,4.05
2022-08-11 17:49:49.7700,5.16,0.42,-2.76,5.86
2022-08-11 17:49:49.7790,4.72,-0.54,-4.0,6.21
2022-08-11 17:49:49.7890,2.96,-0.84,-2.31,3.84
2022-08-11 17:49:49.8000,1.03,-1.01,-0.43,1.5
2022-08-11 17:49:49.8090,-0.4,-1.2,0.49,1.35
2022-08-11 17:49:49.8290,-1.3,-1.37,0.86,2.07
2022-08-11 17:49:49.8320,-1.6,-1.46,1.23,2.49
2022-08-11 17:49:49.8390,-1.19,-1.48,1.76,2.58
2022-08-11 17:49:49.8490,-0.04,-1.41,1.85,2.32
2022-08-11 17:49:49.8600,1.47,-1.1,0.97,2.07
2022-08-11 17:49:49.8690,3.17,-0.86,-0.28,3.29
2022-08-11 17:49:49.8790,4.59,-0.86,-1.13,4.8
2022-08-11 17:49:49.8900,5.31,-0.84,-1.12,5.49
2022-08-11 17:49:49.9000,5.46,-0.61,-0.29,5.5
2022-08-11 17:49:49.9080,5.19,-0.39,0.18,5.2
2022-08-11 17:49:49.9280,4.09,-0.38,0.02,4.1
2022-08-11 17:49:49.9310,2.14,-0.49,-0.32,2.21
2022-08-11 17:49:49.9380,0.84,-0.44,-0.48,1.06
2022-08-11 17:49:49.9500,0.48,-0.09,-0.21,0.53
2022-08-11 17:49:49.9580,0.65,0.28,0.36,0.79
2022-08-11 17:49:49.9680,1.45,0.42,0.88,1.74
2022-08-11 17:49:49.9800,2.95,0.33,1.41,3.28
2022-08-11 17:49:49.9880,4.83,-0.01,1.95,5.2
2022-08-11 17:49:49.9980,6.31,-0.35,2.16,6.67
2022-08-11 17:49:50.0080,7.17,-0.37,1.76,7.39
2022-08-11 17:49:50.0300,7.18,0.1,0.91,7.23
2022-08-11 17:49:50.0320,6.0,1.12,0.24,6.1
2022-08-11 17:49:50.0380,4.33,2.45,0.15,4.97
2022-08-11 17:49:50.0480,2.98,3.54,0.33,4.63
2022-08-11 17:49:50.0570,1.98,3.74,0.65,4.28
2022-08-11 17:49:50.0690,1.68,2.49,1.22,3.24
2022-08-11 17:49:50.0780,2.28,0.47,1.82,2.95
2022-08-11 17:49:50.0870,3.05,-1.05,1.57,3.58
2022-08-11 17:49:50.0990,3.16,-2.11,0.8,3.88
2022-08-11 17:49:50.1070,2.34,-2.95,0.15,3.76
2022-08-11 17:49:50.1320,0.72,-3.18,-0.42,3.28
2022-08-11 17:49:50.1360,-1.33,-1.64,-0.99,2.33
2022-08-11 17:49:50.1390,-3.53,3.04,-1.42,4.87
2022-08-11 17:49:50.1470,-5.59,8.71,-0.81,10.38
2022-08-11 17:49:50.1580,-7.75,10.28,0.11,12.87
2022-08-11 17:49:50.1670,-8.01,12.43,-1.55,14.86
2022-08-11 17:49:50.1770,-7.37,15.11,-3.51,17.17
2022-08-11 17:49:50.1870,-6.6,15.06,-5.38,17.3
2022-08-11 17:49:50.1960,-4.71,9.73,-5.72,12.23
2022-08-11 17:49:50.2060,-1.92,3.79,-4.44,6.14
2022-08-11 17:49:50.2180,0.33,0.18,-2.6,2.62
2022-08-11 17:49:50.2310,1.97,-1.32,-1.37,2.73
2022-08-11 17:49:50.2360,3.08,-1.58,-0.93,3.58
2022-08-11 17:49:50.2460,3.76,-1.74,-0.68,4.19
2022-08-11 17:49:50.2570,4.37,-2.15,-0.34,4.88
2022-08-11 17:49:50.2670,4.72,-2.73,0.05,5.45
2022-08-11 17:49:50.2760,4.49,-3.32,0.33,5.59
2022-08-11 17:49:50.2870,3.52,-3.67,0.52,5.11
2022-08-11 17:49:50.2960,1.81,-3.52,0.72,4.02
2022-08-11 17:49:50.3060,-0.51,-3.01,0.85,3.16
2022-08-11 17:49:50.3160,-2.64,-2.51,0.85,3.74
2022-08-11 17:49:50.3310,-4.08,-2.25,0.99,4.76
2022-08-11 17:49:50.3350,-4.77,-2.39,1.37,5.5
2022-08-11 17:49:50.3470,-5.13,-2.9,1.5,6.08
2022-08-11 17:49:50.3550,-5.27,-3.79,1.08,6.58
2022-08-11 17:49:50.3650,-5.13,-4.79,0.84,7.06
2022-08-11 17:49:50.3770,-4.89,-5.76,0.72,7.59
2022-08-11 17:49:50.3850,-4.6,-6.52,0.62,8.0
2022-08-11 17:49:50.3950,-4.25,-6.94,0.57,8.15
2022-08-11 17:49:50.4050,-3.91,-6.85,0.3,7.89
2022-08-11 17:49:50.4150,-3.42,-5.85,-0.21,6.77
2022-08-11 17:49:50.4310,-2.52,-4.34,-0.86,5.09
2022-08-11 17:49:50.4340,-1.37,-2.9,-1.28,3.45
2022-08-11 17:49:50.4460,-0.19,-1.42,-1.49,2.06
2022-08-11 17:49:50.4560,1.03,0.19,-1.25,1.63
2022-08-11 17:49:50.4670,2.29,1.6,-0.62,2.86
2022-08-11 17:49:50.4740,3.38,2.44,-0.12,4.17
2022-08-11 17:49:50.4840,4.05,2.78,-0.07,4.91
2022-08-11 17:49:50.4940,4.67,2.85,-0.26,5.47
2022-08-11 17:49:50.5040,5.47,2.7,-0.08,6.1
2022-08-11 17:49:50.5140,6.46,2.4,0.49,6.9
2022-08-11 17:49:50.5290,7.51,2.46,0.65,7.92
2022-08-11 17:49:50.5350,8.18,2.84,0.05,8.65
2022-08-11 17:49:50.5440,7.81,2.69,-1.12,8.33
2022-08-11 17:49:50.5550,6.49,1.87,-2.28,7.12
2022-08-11 17:49:50.5640,4.55,1.83,-2.97,5.73
2022-08-11 17:49:50.5740,2.86,3.18,-4.1,5.92
2022-08-11 17:49:50.5840,2.17,5.9,-4.94,7.99
2022-08-11 17:49:50.5950,1.81,8.05,-1.33,8.35
2022-08-11 17:49:50.6030,-0.48,9.6,2.86,10.02
2022-08-11 17:49:50.6140,-5.37,12.06,3.87,13.75
2022-08-11 17:49:50.6330,-11.71,10.38,5.3,16.52
2022-08-11 17:49:50.6370,-14.48,3.55,6.89,16.42
2022-08-11 17:49:50.6430,-12.01,-2.76,6.85,14.09
2022-08-11 17:49:50.6540,-9.15,-6.09,5.7,12.38
2022-08-11 17:49:50.6650,-7.6,-8.12,3.47,11.65
2022-08-11 17:49:50.6730,-6.52,-9.04,1.0,11.19
2022-08-11 17:49:50.6840,-4.89,-6.29,-0.17,7.96
2022-08-11 17:49:50.6930,-3.37,-2.43,0.33,4.16
2022-08-11 17:49:50.7030,-2.81,-0.92,1.11,3.15
2022-08-11 17:49:50.7130,-2.3,-0.57,1.52,2.81
2022-08-11 17:49:50.7300,-1.99,-0.67,1.28,2.45
2022-08-11 17:49:50.7340,-2.26,-0.58,0.66,2.42
2022-08-11 17:49:50.7420,-2.66,-0.01,0.49,2.7
2022-08-11 17:49:50.7530,-2.73,0.76,1.37,3.14
2022-08-11 17:49:50.7640,-2.34,1.3,2.38,3.58
2022-08-11 17:49:50.7720,-1.41,1.54,2.62,3.35
2022-08-11 17:49:50.7840,-0.33,1.26,1.62,2.07
2022-08-11 17:49:50.7920,0.05,0.53,-0.44,0.69
2022-08-11 17:49:50.8020,-0.01,-0.18,-2.39,2.39
2022-08-11 17:49:50.8120,-0.06,-0.59,-2.78,2.84
2022-08-11 17:49:50.8360,-0.38,-0.81,-1.76,1.97
2022-08-11 17:49:50.8380,-0.91,-1.05,-0.42,1.45
2022-08-11 17:49:50.8420,-1.25,-1.41,0.5,1.94
2022-08-11 17:49:50.8520,-1.09,-1.69,1.12,2.3
2022-08-11 17:49:50.8620,-0.64,-1.71,1.37,2.28
2022-08-11 17:49:50.8720,-0.01,-1.41,1.15,1.81
2022-08-11 17:49:50.8820,0.88,-1.05,0.63,1.5
2022-08-11 17:49:50.8910,2.02,-0.82,0.15,2.18
2022-08-11 17:49:50.9010,3.22,-0.69,-0.06,3.29
2022-08-11 17:49:50.9110,4.33,-0.66,-0.01,4.38
2022-08-11 17:49:50.9340,5.1,-0.59,0.26,5.14
2022-08-11 17:49:50.9370,5.28,-0.44,0.59,5.33
2022-08-11 17:49:50.9410,4.88,-0.47,0.74,4.95
2022-08-11 17:49:50.9510,4.02,-0.76,0.82,4.17
2022-08-11 17:49:50.9620,3.13,-1.2,0.68,3.42
2022-08-11 17:49:50.9720,2.34,-1.4,0.43,2.76
2022-08-11 17:49:50.9810,1.56,-1.15,0.19,1.94
2022-08-11 17:49:50.9910,0.9,-0.5,0.11,1.03
2022-08-11 17:49:51.0010,0.77,0.37,0.54,1.01
2022-08-11 17:49:51.0120,1.47,0.96,1.53,2.32
2022-08-11 17:49:51.0200,2.89,1.08,2.74,4.12
2022-08-11 17:49:51.0350,4.36,1.08,3.49,5.68
2022-08-11 17:49:51.0400,5.46,1.19,3.63,6.66
2022-08-11 17:49:51.0500,6.15,1.68,3.05,7.06
2022-08-11 17:49:51.0610,5.76,2.45,2.09,6.59
2022-08-11 17:49:51.0710,4.34,3.0,1.42,5.46
2022-08-11 17:49:51.0810,2.97,2.89,1.32,4.34
2022-08-11 17:49:51.0900,2.33,2.43,1.67,3.75
2022-08-11 17:49:51.1010,2.23,1.78,2.07,3.52
2022-08-11 17:49:51.1100,2.39,0.95,2.09,3.31
2022-08-11 17:49:51.1200,2.39,-0.05,1.6,2.87
2022-08-11 17:49:51.1330,1.71,-1.22,0.82,2.25
2022-08-11 17:49:51.1400,0.38,-2.42,0.2,2.45
2022-08-11 17:49:51.1500,-1.17,-2.89,-0.26,3.12
2022-08-11 17:49:51.1610,-2.72,-2.24,-0.64,3.58
2022-08-11 17:49:51.1710,-3.95,-0.2,-1.18,4.12
2022-08-11 17:49:51.1790,-4.44,3.14,-2.17,5.85
2022-08-11 17:49:51.1890,-4.34,6.79,-1.68,8.23
2022-08-11 17:49:51.1990,-3.98,8.17,-0.54,9.1
2022-08-11 17:49:51.2090,-2.77,9.71,-1.4,10.19
2022-08-11 17:49:51.2190,-1.47,11.75,-2.52,12.1
2022-08-11 17:49:51.2330,-0.9,11.95,-4.1,12.66
2022-08-11 17:49:51.2390,0.13,8.22,-5.38,9.82
2022-08-11 17:49:51.2490,1.73,3.4,-4.82,6.14
2022-08-11 17:49:51.2590,2.44,0.31,-3.19,4.02
2022-08-11 17:49:51.2700,2.57,-1.13,-1.74,3.3
2022-08-11 17:49:51.2790,2.53,-1.33,-0.93,3.0
2022-08-11 17:49:51.2900,2.45,-1.24,-0.42,2.77
2022-08-11 17:49:51.2980,2.57,-1.55,0.01,3.0
2022-08-11 17:49:51.3080,2.62,-2.09,0.42,3.37
2022-08-11 17:49:51.3200,2.34,-2.74,0.62,3.65
2022-08-11 17:49:51.3340,1.72,-3.13,0.6,3.62
2022-08-11 17:49:51.3380,0.58,-3.04,0.57,3.14
2022-08-11 17:49:51.3490,-1.13,-2.5,0.67,2.82
2022-08-11 17:49:51.3580,-2.83,-1.67,0.95,3.42
2022-08-11 17:49:51.3680,-4.3,-1.01,1.33,4.61
2022-08-11 17:49:51.3780,-5.19,-0.93,1.62,5.51
2022-08-11 17:49:51.3880,-5.52,-1.51,1.71,5.97
2022-08-11 17:49:51.3980,-5.43,-2.5,1.64,6.19
2022-08-11 17:49:51.4080,-5.14,-3.66,1.31,6.44
2022-08-11 17:49:51.4180,-4.74,-4.81,0.96,6.82
2022-08-11 17:49:51.4360,-4.29,-5.77,0.64,7.21
2022-08-11 17:49:51.4390,-3.9,-6.42,0.33,7.51
2022-08-11 17:49:51.4480,-3.59,-6.41,-0.06,7.34
2022-08-11 17:49:51.4580,-3.19,-5.34,-0.6,6.24
2022-08-11 17:49:51.4670,-2.54,-3.82,-1.14,4.72
2022-08-11 17:49:51.4780,-1.64,-2.51,-1.37,3.29
2022-08-11 17:49:51.4870,-0.53,-1.32,-1.31,1.93
2022-08-11 17:49:51.4970,0.63,-0.1,-1.05,1.22
2022-08-11 17:49:51.5070,1.84,0.96,-0.43,2.11
2022-08-11 17:49:51.5170,2.85,1.57,-0.08,3.25
2022-08-11 17:49:51.5380,3.62,1.9,-0.27,4.09
2022-08-11 17:49:51.5410,4.28,2.12,-0.6,4.81
2022-08-11 17:49:51.5460,5.14,2.25,-0.32,5.62
2022-08-11 17:49:51.5580,6.16,2.12,0.28,6.52
2022-08-11 17:49:51.5670,7.35,1.88,0.64,7.61
2022-08-11 17:49:51.5760,8.34,1.93,0.56,8.57
2022-08-11 17:49:51.5880,8.59,1.84,-0.16,8.78
2022-08-11 17:49:51.5960,7.54,1.64,-1.77,7.91
2022-08-11 17:49:51.6060,5.17,3.15,-3.89,7.19
2022-08-11 17:49:51.6160,3.22,6.9,-5.82,9.58
2022-08-11 17:49:51.6400,2.15,9.9,-3.65,10.76
2022-08-11 17:49:51.6430,0.51,11.24,1.88,11.4
2022-08-11 17:49:51.6450,-3.1,13.41,3.94,14.31
2022-08-11 17:49:51.6570,-8.19,11.72,4.8,15.08
2022-08-11 17:49:51.6660,-11.28,4.01,5.39,13.12
2022-08-11 17:49:51.6770,-10.12,-2.45,5.16,11.62
2022-08-11 17:49:51.6860,-8.73,-5.79,4.67,11.46
2022-08-11 17:49:51.6950,-8.36,-7.96,3.37,12.02
2022-08-11 17:49:51.7070,-8.36,-8.94,1.55,12.33
2022-08-11 17:49:51.7170,-7.93,-7.04,0.68,10.62
2022-08-11 17:49:51.7370,-6.32,-2.47,1.61,6.97
2022-08-11 17:49:51.7390,-5.23,-0.03,2.75,5.9
2022-08-11 17:49:51.7460,-4.35,0.46,2.78,5.18
2022-08-11 17:49:51.7560,-3.39,0.17,2.1,3.99
2022-08-11 17:49:51.7650,-2.95,-0.28,0.92,3.1
2022-08-11 17:49:51.7750,-2.96,-0.47,-0.07,2.99
2022-08-11 17:49:51.7850,-2.79,-0.17,0.3,2.81
2022-08-11 17:49:51.7970,-1.96,0.02,1.89,2.72
2022-08-11 17:49:51.8050,-0.56,-0.16,3.07,3.12
2022-08-11 17:49:51.8150,0.63,-0.53,2.42,2.55
2022-08-11 17:49:51.8250,1.3,-0.87,0.51,1.64
2022-08-11 17:49:51.8400,1.27,-1.0,-1.37,2.11
2022-08-11 17:49:51.8440,0.73,-0.86,-2.06,2.34
2022-08-11 17:49:51.8550,-0.3,-0.6,-1.46,1.6
2022-08-11 17:49:51.8660,-1.47,-0.48,-0.49,1.62
2022-08-11 17:49:51.8740,-2.24,-0.72,0.26,2.36
2022-08-11 17:49:51.8850,-2.31,-1.0,0.85,2.65
2022-08-11 17:49:51.8940,-1.82,-1.0,1.34,2.47
2022-08-11 17:49:51.9040,-0.98,-0.68,1.42,1.85
2022-08-11 17:49:51.9140,0.15,-0.28,1.01,1.05
2022-08-11 17:49:51.9240,1.63,-0.05,0.23,1.64
2022-08-11 17:49:51.9410,3.16,0.11,-0.33,3.17
2022-08-11 17:49:51.9440,4.38,0.23,-0.31,4.39
2022-08-11 17:49:51.9540,5.12,0.28,0.08,5.12
2022-08-11 17:49:51.9640,5.31,0.22,0.42,5.33
2022-08-11 17:49:51.9730,4.99,-0.01,0.55,5.02
2022-08-11 17:49:51.9830,4.27,-0.52,0.57,4.33
2022-08-11 17:49:51.9940,3.39,-1.07,0.5,3.58
2022-08-11 17:49:52.0050,2.55,-1.22,0.41,2.85
2022-08-11 17:49:52.0150,1.71,-0.91,0.25,1.95
2022-08-11 17:49:52.0230,0.96,-0.26,0.05,0.99
2022-08-11 17:49:52.0370,0.38,0.39,0.25,0.59
2022-08-11 17:49:52.0430,0.02,0.7,0.59,0.91
2022-08-11 17:49:52.0530,0.03,0.73,1.01,1.24
2022-08-11 17:49:52.0650,0.86,0.51,1.76,2.02
2022-08-11 17:49:52.0730,2.4,0.08,2.95,3.8
2022-08-11 17:49:52.0840,4.02,-0.41,3.99,5.67
2022-08-11 17:49:52.0930,5.35,-0.69,4.22,6.84
2022-08-11 17:49:52.1030,6.08,-0.46,3.53,7.04
2022-08-11 17:49:52.1130,6.0,0.36,2.19,6.39
2022-08-11 17:49:52.1230,4.91,1.51,1.08,5.24
2022-08-11 17:49:52.1360,3.43,2.43,0.7,4.26
2022-08-11 17:49:52.1430,2.2,2.87,0.84,3.71
2022-08-11 17:49:52.1530,1.49,2.75,1.55,3.49
2022-08-11 17:49:52.1640,1.27,2.19,2.16,3.32
2022-08-11 17:49:52.1720,1.61,1.46,2.2,3.09
2022-08-11 17:49:52.1830,1.42,0.57,1.78,2.34
2022-08-11 17:49:52.1940,0.6,-0.78,1.43,1.73
2022-08-11 17:49:52.2020,-0.44,-2.03,1.17,2.38
2022-08-11 17:49:52.2120,-1.42,-2.72,0.74,3.15
2022-08-11 17:49:52.2230,-2.48,-2.29,0.2,3.38
2022-08-11 17:49:52.2380,-3.5,-0.57,-1.07,3.7
2022-08-11 17:49:52.2420,-3.8,2.59,-2.87,5.42
2022-08-11 17:49:52.2520,-3.44,6.35,-3.15,7.87
2022-08-11 17:49:52.2630,-2.59,8.19,-2.34,8.9
2022-08-11 17:49:52.2710,-1.16,9.43,-2.72,9.88
2022-08-11 17:49:52.2830,0.14,10.03,-3.44,10.6
2022-08-11 17:49:52.2920,0.75,8.23,-4.22,9.27
2022-08-11 17:49:52.3010,1.94,4.27,-4.2,6.29
2022-08-11 17:49:52.3120,2.44,1.26,-3.14,4.17
2022-08-11 17:49:52.3210,1.86,-0.04,-2.01,2.73
2022-08-11 17:49:52.3400,1.21,-0.44,-1.24,1.78
2022-08-11 17:49:52.3440,0.76,-0.34,-0.8,1.15
2022-08-11 17:49:52.3510,0.6,-0.18,-0.45,0.77
2022-08-11 17:49:52.3610,0.81,-0.29,0.08,0.86
2022-08-11 17:49:52.3720,0.78,-0.51,0.48,1.04
2022-08-11 17:49:52.3810,0.21,-0.77,0.64,1.02
2022-08-11 17:49:52.3910,-0.54,-1.03,0.68,1.34
2022-08-11 17:49:52.4020,-1.43,-1.06,0.77,1.93
2022-08-11 17:49:52.4100,-2.56,-0.74,0.76,2.77
2022-08-11 17:49:52.4200,-3.77,-0.35,0.72,3.85
2022-08-11 17:49:52.4430,-4.68,-0.22,0.92,4.77
2022-08-11 17:49:52.4450,-5.1,-0.63,1.15,5.26
2022-08-11 17:49:52.4500,-5.0,-1.62,1.18,5.38
2022-08-11 17:49:52.4610,-4.5,-2.89,1.03,5.44
2022-08-11 17:49:52.4700,-3.84,-4.17,0.83,5.72
2022-08-11 17:49:52.4810,-3.13,-5.28,0.61,6.16
2022-08-11 17:49:52.4910,-2.58,-5.96,0.3,6.5
2022-08-11 17:49:52.5000,-2.29,-6.04,-0.1,6.46
2022-08-11 17:49:52.5100,-2.15,-4.98,-0.37,5.43
2022-08-11 17:49:52.5190,-2.07,-3.23,-0.59,3.88
2022-08-11 17:49:52.5420,-1.82,-1.85,-0.88,2.74
2022-08-11 17:49:52.5440,-1.32,-1.03,-1.06,1.98
2022-08-11 17:49:52.5500,-0.68,-0.69,-1.04,1.42
2022-08-11 17:49:52.5600,-0.1,-0.7,-0.88,1.12
2022-08-11 17:49:52.5710,0.23,-0.91,-0.65,1.14
2022-08-11 17:49:52.5790,0.37,-1.05,-0.34,1.16
2022-08-11 17:49:52.5890,0.54,-0.96,-0.17,1.11
2022-08-11 17:49:52.5990,0.97,-0.45,-0.27,1.1
2022-08-11 17:49:52.6090,1.82,0.46,-0.47,1.93
2022-08-11 17:49:52.6190,3.05,1.51,-0.47,3.43
2022-08-11 17:49:52.6290,4.46,2.24,-0.01,4.99
2022-08-11 17:49:52.6420,5.77,2.54,0.52,6.32
2022-08-11 17:49:52.6480,6.59,2.77,0.98,7.21
2022-08-11 17:49:52.6590,6.48,2.54,0.59,6.98
2022-08-11 17:49:52.6690,5.22,1.76,-0.7,5.55
2022-08-11 17:49:52.6800,3.31,1.31,-1.95,4.05
2022-08-11 17:49:52.6880,1.59,1.59,-3.09,3.82
2022-08-11 17:49:52.7000,0.96,3.05,-3.45,4.7
2022-08-11 17:49:52.7090,1.82,5.47,-2.65,6.34
2022-08-11 17:49:52.7200,2.64,6.78,-0.71,7.31
2022-08-11 17:49:52.7280,1.71,7.29,0.91,7.54
2022-08-11 17:49:52.7430,-1.64,8.52,1.72,8.84
2022-08-11 17:49:52.7480,-6.35,7.92,2.33,10.41
2022-08-11 17:49:52.7580,-9.48,3.42,2.56,10.39
2022-08-11 17:49:52.7680,-9.17,-1.48,2.76,9.69
2022-08-11 17:49:52.7790,-7.95,-4.1,3.62,9.64
2022-08-11 17:49:52.7870,-6.93,-4.94,4.38,9.57
2022-08-11 17:49:52.7980,-5.38,-4.7,4.47,8.42
2022-08-11 17:49:52.8070,-3.6,-3.69,3.25,6.09
2022-08-11 17:49:52.8170,-2.64,-2.93,1.28,4.14
2022-08-11 17:49:52.8290,-2.95,-2.97,-0.45,4.21
2022-08-11 17:49:52.8430,-4.11,-3.31,-1.24,5.42
2022-08-11 17:49:52.8470,-5.53,-3.14,-0.89,6.42
2022-08-11 17:49:52.8580,-6.45,-1.94,0.04,6.73
2022-08-11 17:49:52.8680,-6.49,0.02,1.52,6.66
2022-08-11 17:49:52.8780,-5.71,1.75,3.92,7.14
2022-08-11 17:49:52.8870,-4.26,2.49,5.53,7.41
2022-08-11 17:49:52.8990,-2.26,1.87,4.43,5.31
2022-08-11 17:49:52.9070,0.01,0.25,1.27,1.29
2022-08-11 17:49:52.9170,1.83,-1.2,-2.08,3.01
2022-08-11 17:49:52.9280,2.38,-1.54,-3.57,4.55
2022-08-11 17:49:52.9430,1.74,-0.94,-2.47,3.16
2022-08-11 17:49:52.9460,0.51,-0.49,-0.5,0.86
2022-08-11 17:49:52.9570,-0.75,-0.3,0.67,1.04
2022-08-11 17:49:52.9670,-1.62,-0.13,1.15,1.99
2022-08-11 17:49:52.9770,-1.73,0.01,1.65,2.39
2022-08-11 17:49:52.9870,-1.13,-0.02,2.12,2.4
2022-08-11 17:49:52.9960,-0.28,0.04,1.85,1.87
2022-08-11 17:49:53.0060,0.6,0.27,0.83,1.05
2022-08-11 17:49:53.0180,1.59,0.41,-0.1,1.64
2022-08-11 17:49:53.0260,2.7,0.38,-0.5,2.77
2022-08-11 17:49:53.0450,3.63,0.23,-0.29,3.64
2022-08-11 17:49:53.0500,4.24,0.05,0.28,4.24
2022-08-11 17:49:53.0550,4.41,-0.07,0.68,4.46
2022-08-11 17:49:53.0660,4.16,-0.2,0.64,4.21
2022-08-11 17:49:53.0770,3.52,-0.31,0.34,3.54
2022-08-11 17:49:53.0850,2.8,-0.43,-0.03,2.83
2022-08-11 17:49:53.0950,2.21,-0.44,-0.42,2.29
2022-08-11 17:49:53.1050,1.7,-0.2,-0.7,1.84
2022-08-11 17:49:53.1150,1.15,0.19,-0.76,1.39
2022-08-11 17:49:53.1250,0.54,0.48,-0.44,0.84
2022-08-11 17:49:53.1450,0.11,0.53,0.15,0.56
2022-08-11 17:49:53.1490,0.07,0.35,0.81,0.88
2022-08-11 17:49:53.1550,0.44,0.02,1.32,1.39
2022-08-11 17:49:53.1650,1.05,-0.37,2.09,2.36
2022-08-11 17:49:53.1740,1.88,-0.94,2.51,3.27
2022-08-11 17:49:53.1850,2.88,-1.38,2.4,3.99
2022-08-11 17:49:53.1960,3.81,-1.58,1.97,4.57
2022-08-11 17:49:53.2040,4.36,-1.55,1.39,4.83
2022-08-11 17:49:53.2160,4.33,-1.17,0.9,4.57
2022-08-11 17:49:53.2250,3.86,-0.45,0.56,3.92
2022-08-11 17:49:53.2470,3.14,0.42,0.46,3.2
2022-08-11 17:49:53.2490,2.21,1.35,0.65,2.67
2022-08-11 17:49:53.2540,1.32,2.05,0.8,2.56
2022-08-11 17:49:53.2650,0.71,2.43,0.84,2.66
2022-08-11 17:49:53.2750,0.52,2.47,1.04,2.73
2022-08-11 17:49:53.2850,0.87,2.13,1.44,2.71
2022-08-11 17:49:53.2940,1.43,1.77,1.71,2.84
2022-08-11 17:49:53.3040,1.6,1.47,1.64,2.72
2022-08-11 17:49:53.3140,1.14,1.01,1.59,2.2
2022-08-11 17:49:53.3240,0.45,-0.01,1.71,1.76
2022-08-11 17:49:53.3470,-0.26,-1.42,1.54,2.11
2022-08-11 17:49:53.3500,-1.5,-2.25,0.74,2.8
2022-08-11 17:49:53.3530,-2.96,-2.31,-0.4,3.77
2022-08-11 17:49:53.3640,-4.44,-1.4,-1.63,4.93
2022-08-11 17:49:53.3740,-5.62,0.63,-2.83,6.32
2022-08-11 17:49:53.3850,-5.91,3.87,-2.9,7.63
2022-08-11 17:49:53.3940,-5.74,6.94,-1.38,9.11
2022-08-11 17:49:53.4030,-5.57,7.41,-0.15,9.27
2022-08-11 17:49:53.4150,-4.41,6.72,-0.52,8.05
2022-08-11 17:49:53.4240,-2.77,5.45,-1.63,6.32
2022-08-11 17:49:53.4330,-0.55,3.28,-2.49,4.15
2022-08-11 17:49:53.4480,1.57,1.31,-2.87,3.52
2022-08-11 17:49:53.4530,2.62,0.3,-2.53,3.65
2022-08-11 17:49:53.4630,2.99,0.01,-1.8,3.49
2022-08-11 17:49:53.4740,3.22,-0.09,-1.16,3.42
2022-08-11 17:49:53.4830,3.33,-0.16,-0.82,3.43
2022-08-11 17:49:53.4950,3.13,-0.23,-0.6,3.19
2022-08-11 17:49:53.5020,2.65,-0.29,-0.33,2.68
2022-08-11 17:49:53.5120,1.83,-0.31,-0.06,1.85
2022-08-11 17:49:53.5220,0.85,-0.28,0.17,0.91
2022-08-11 17:49:53.5340,-0.14,-0.2,0.24,0.34
2022-08-11 17:49:53.5480,-1.03,-0.01,0.36,1.09
2022-08-11 17:49:53.5530,-2.0,0.24,0.57,2.09
2022-08-11 17:49:53.5640,-2.84,0.43,1.01,3.04
2022-08-11 17:49:53.5720,-3.51,0.43,1.34,3.78
2022-08-11 17:49:53.5830,-3.94,0.03,1.38,4.17
2022-08-11 17:49:53.5920,-3.9,-0.9,1.4,4.24
2022-08-11 17:49:53.6030,-3.55,-2.06,1.39,4.33
2022-08-11 17:49:53.6120,-2.95,-3.18,1.29,4.52
2022-08-11 17:49:53.6230,-2.09,-4.11,1.11,4.74
2022-08-11 17:49:53.6330,-1.17,-4.62,0.56,4.79
2022-08-11 17:49:53.6440,-0.26,-4.21,-0.25,4.22
2022-08-11 17:49:53.6520,0.32,-2.96,-0.81,3.08
2022-08-11 17:49:53.6620,0.51,-1.83,-0.82,2.06
2022-08-11 17:49:53.6720,0.8,-1.13,-0.14,1.39
2022-08-11 17:49:53.6820,1.16,-0.67,0.59,1.46
2022-08-11 17:49:53.6910,1.5,-0.24,1.12,1.88
2022-08-11 17:49:53.7030,1.8,0.18,1.67,2.46
2022-08-11 17:49:53.7120,2.1,0.52,2.1,3.01
2022-08-11 17:49:53.7210,2.43,0.52,2.26,3.35
2022-08-11 17:49:53.7320,2.62,0.23,2.13,3.38
2022-08-11 17:49:53.7470,2.67,-0.08,2.25,3.49
2022-08-11 17:49:53.7510,2.76,-0.3,2.65,3.83
2022-08-11 17:49:53.7610,3.02,-0.46,3.01,4.28
2022-08-11 17:49:53.7710,3.28,-0.5,2.95,4.43
2022-08-11 17:49:53.7820,3.24,-0.47,2.61,4.18
2022-08-11 17:49:53.7900,2.57,-0.53,2.27,3.46
2022-08-11 17:49:53.8000,1.19,-0.59,2.09,2.47
2022-08-11 17:49:53.8110,-0.47,-0.6,2.09,2.22
2022-08-11 17:49:53.8200,-1.86,-0.49,2.34,3.02
2022-08-11 17:49:53.8300,-3.11,-0.32,2.21,3.82
2022-08-11 17:49:53.8500,-4.33,-0.16,1.77,4.68
2022-08-11 17:49:53.8540,-5.63,-0.16,1.24,5.76
2022-08-11 17:49:53.8590,-7.0,-0.44,0.82,7.06
2022-08-11 17:49:53.8700,-7.93,-1.06,0.72,8.03
2022-08-11 17:49:53.8800,-8.21,-2.01,0.57,8.47
2022-08-11 17:49:53.8890,-7.73,-3.03,0.23,8.3
2022-08-11 17:49:53.9000,-6.52,-3.48,0.09,7.39
2022-08-11 17:49:53.9090,-4.94,-2.78,0.58,5.69
2022-08-11 17:49:53.9190,-2.85,-1.26,2.63,4.07
2022-08-11 17:49:53.9310,-0.8,1.3,4.73,4.97
2022-08-11 17:49:53.9470,0.61,6.91,6.44,9.46
2022-08-11 17:49:53.9500,2.07,13.92,7.08,15.75
2022-08-11 17:49:53.9600,3.86,18.62,4.85,19.62
2022-08-11 17:49:53.9690,5.3,16.28,1.42,17.17
2022-08-11 17:49:53.9800,4.85,5.68,0.11,7.46
2022-08-11 17:49:53.9910,3.03,-1.77,1.76,3.92
2022-08-11 17:49:53.9990,1.41,-5.01,4.01,6.57
2022-08-11 17:49:54.0090,0.28,-5.78,5.32,7.86
2022-08-11 17:49:54.0200,-0.45,-5.72,5.54,7.97
2022-08-11 17:49:54.0300,-0.81,-5.32,5.05,7.37
2022-08-11 17:49:54.0500,-1.23,-4.34,4.44,6.32
2022-08-11 17:49:54.0530,-1.77,-2.76,4.31,5.41
2022-08-11 17:49:54.0590,-2.13,-1.44,4.67,5.33
2022-08-11 17:49:54.0690,-2.13,-0.81,4.68,5.2
2022-08-11 17:49:54.0800,-2.29,-0.63,3.18,3.96
2022-08-11 17:49:54.0880,-2.28,-0.3,1.24,2.61
2022-08-11 17:49:54.0990,-0.98,0.82,0.62,1.42
2022-08-11 17:49:54.1080,1.44,1.64,1.15,2.46
2022-08-11 17:49:54.1180,3.24,1.22,1.69,3.85
2022-08-11 17:49:54.1280,3.8,0.42,2.08,4.35
2022-08-11 17:49:54.1510,3.58,0.17,2.59,4.42
2022-08-11 17:49:54.1530,3.56,0.57,3.54,5.05
2022-08-11 17:49:54.1580,3.99,1.15,4.27,5.95
2022-08-11 17:49:54.1680,4.52,1.53,4.35,6.45
2022-08-11 17:49:54.1790,4.47,1.52,4.18,6.3
2022-08-11 17:49:54.1870,3.89,1.05,3.92,5.62
2022-08-11 17:49:54.1990,3.04,0.39,3.77,4.85
2022-08-11 17:49:54.2070,2.25,-0.07,3.79,4.4
2022-08-11 17:49:54.2170,1.46,-0.26,3.83,4.1
2022-08-11 17:49:54.2290,0.66,-0.22,3.75,3.81
2022-08-11 17:49:54.2370,0.0,-0.15,3.84,3.84
2022-08-11 17:49:54.2540,-0.57,-0.16,3.96,4.0
2022-08-11 17:49:54.2570,-1.0,-0.26,4.11,4.23
2022-08-11 17:49:54.2670,-1.36,-0.35,4.08,4.31
2022-08-11 17:49:54.2780,-1.65,-0.34,3.86,4.21
2022-08-11 17:49:54.2870,-1.91,-0.2,3.42,3.92
2022-08-11 17:49:54.2970,-2.11,0.14,2.86,3.55
2022-08-11 17:49:54.3070,-2.18,0.56,2.33,3.23
2022-08-11 17:49:54.3160,-2.08,0.99,2.04,3.07
2022-08-11 17:49:54.3280,-1.82,1.39,2.05,3.07
2022-08-11 17:49:54.3360,-1.42,1.66,2.22,3.11
2022-08-11 17:49:54.3520,-0.91,1.57,2.61,3.17
2022-08-11 17:49:54.3560,-0.32,1.1,3.1,3.3
2022-08-11 17:49:54.3670,0.3,0.52,3.38,3.43
2022-08-11 17:49:54.3770,0.92,0.11,3.37,3.49
2022-08-11 17:49:54.3870,1.41,-0.05,3.11,3.41
2022-08-11 17:49:54.3960,1.61,0.01,2.85,3.27
2022-08-11 17:49:54.4070,1.6,0.31,2.83,3.26
2022-08-11 17:49:54.4170,1.6,0.71,3.15,3.6
2022-08-11 17:49:54.4270,1.6,1.02,3.6,4.06
2022-08-11 17:49:54.4360,1.8,1.19,4.16,4.68
2022-08-11 17:49:54.4520,2.3,1.29,4.76,5.44
2022-08-11 17:49:54.4550,2.98,1.45,5.11,6.09
2022-08-11 17:49:54.4660,3.78,1.6,5.22,6.64
2022-08-11 17:49:54.4760,4.48,1.72,5.03,6.95
2022-08-11 17:49:54.4860,4.92,1.8,4.52,6.91
2022-08-11 17:49:54.4950,5.07,1.73,3.72,6.52
2022-08-11 17:49:54.5050,4.88,1.37,2.85,5.81
2022-08-11 17:49:54.5170,4.41,0.77,2.0,4.9
2022-08-11 17:49:54.5250,3.58,0.18,0.84,3.68
2022-08-11 17:49:54.5350,2.52,-0.08,-0.47,2.56
2022-08-11 17:49:54.5480,1.52,-0.07,-0.85,1.74
2022-08-11 17:49:54.5550,0.39,0.01,-0.74,0.83
2022-08-11 17:49:54.5650,-0.41,0.26,-0.7,0.85
2022-08-11 17:49:54.5750,-0.87,1.01,-0.86,1.58
2022-08-11 17:49:54.5860,-1.18,2.37,-0.74,2.74
2022-08-11 17:49:54.5950,-1.16,4.01,-0.86,4.26
2022-08-11 17:49:54.6050,-0.64,4.97,-1.69,5.28
2022-08-11 17:49:54.6160,0.35,4.86,-2.55,5.49
2022-08-11 17:49:54.6240,1.4,4.08,-2.63,5.05
2022-08-11 17:49:54.6350,2.07,3.12,-2.14,4.31
2022-08-11 17:49:54.6520,2.4,1.9,-1.77,3.53
2022-08-11 17:49:54.6550,2.23,0.7,-1.57,2.81
2022-08-11 17:49:54.6640,1.83,-0.23,-1.04,2.11
2022-08-11 17:49:54.6750,1.4,-0.77,-0.24,1.61
2022-08-11 17:49:54.6850,1.05,-0.92,0.51,1.48
2022-08-11 17:49:54.6950,0.6,-0.92,1.08,1.54
2022-08-11 17:49:54.7030,0.07,-1.0,1.53,1.82
2022-08-11 17:49:54.7160,-0.35,-1.22,1.8,2.2
2022-08-11 17:49:54.7240,-0.56,-1.45,1.97,2.5
2022-08-11 17:49:54.7330,-1.18,-1.47,1.72,2.55
2022-08-11 17:49:54.7530,-1.76,-1.31,1.58,2.7
2022-08-11 17:49:54.7560,-2.59,-0.9,1.28,3.02
2022-08-11 17:49:54.7640,-3.43,-0.45,0.84,3.55
2022-08-11 17:49:54.7750,-3.99,-0.03,0.7,4.05
2022-08-11 17:49:54.7830,-4.42,0.28,0.52,4.45
2022-08-11 17:49:54.7950,-4.59,0.2,0.23,4.6
2022-08-11 17:49:54.8030,-4.03,-0.38,0.17,4.05
2022-08-11 17:49:54.8130,-3.21,-1.2,-0.08,3.42
2022-08-11 17:49:54.8230,-2.13,-2.02,-0.47,2.97
2022-08-11 17:49:54.8330,-0.79,-2.55,-0.77,2.77
2022-08-11 17:49:54.8560,0.44,-2.48,-0.99,2.7
2022-08-11 17:49:54.8580,1.45,-1.94,-0.92,2.59
2022-08-11 17:49:54.8630,1.99,-1.25,-0.6,2.42
2022-08-11 17:49:54.8720,1.85,-0.69,-0.31,1.99
2022-08-11 17:49:54.8840,1.25,-0.5,-0.33,1.38
2022-08-11 17:49:54.8920,0.64,-0.69,-0.51,1.07
2022-08-11 17:49:54.9020,0.04,-1.04,-0.61,1.2
2022-08-11 17:49:54.9120,-0.45,-1.4,-0.7,1.62
2022-08-11 17:49:54.9220,-0.72,-1.83,-0.75,2.1
2022-08-11 17:49:54.9340,-0.84,-2.38,-0.68,2.61
2022-08-11 17:49:54.9550,-0.87,-3.06,-0.39,3.2
2022-08-11 17:49:54.9570,-0.91,-3.47,-0.25,3.59
2022-08-11 17:49:54.9620,-0.88,-3.36,-0.45,3.5
2022-08-11 17:49:54.9720,-0.62,-2.92,-0.85,3.1
2022-08-11 17:49:54.9820,-0.04,-2.27,-1.5,2.72
2022-08-11 17:49:54.9930,0.89,-1.44,-2.05,2.65
2022-08-11 17:49:55.0030,2.15,-0.19,-2.05,2.97
2022-08-11 17:49:55.0130,3.76,1.57,-1.36,4.29
2022-08-11 17:49:55.0210,5.95,3.38,-0.05,6.84
2022-08-11 17:49:55.0330,8.35,4.28,0.66,9.4
2022-08-11 17:49:55.0410,9.55,3.79,0.03,10.27
2022-08-11 17:49:55.0580,8.47,2.1,-0.56,8.74
2022-08-11 17:49:55.0610,5.45,0.5,-1.37,5.64
2022-08-11 17:49:55.0720,3.18,-0.27,-1.95,3.74
2022-08-11 17:49:55.0810,2.26,0.03,-2.41,3.3
2022-08-11 17:49:55.0920,2.21,1.79,-2.94,4.09
2022-08-11 17:49:55.1010,2.55,5.18,-2.35,6.23
2022-08-11 17:49:55.1110,1.83,7.46,0.35,7.68
2022-08-11 17:49:55.1220,-0.27,7.29,2.24,7.63
2022-08-11 17:49:55.1330,-3.35,8.5,2.49,9.46
2022-08-11 17:49:55.1410,-7.93,8.35,3.21,11.95
2022-08-11 17:49:55.1560,-12.02,5.07,4.22,13.71
2022-08-11 17:49:55.1600,-13.44,0.46,3.99,14.02
2022-08-11 17:49:55.1700,-12.29,-3.24,2.53,12.95
2022-08-11 17:49:55.1820,-9.56,-5.32,1.38,11.02
2022-08-11 17:49:55.1900,-5.8,-5.99,1.31,8.44
2022-08-11 17:49:55.2000,-2.54,-5.39,0.71,6.0
2022-08-11 17:49:55.2120,-0.8,-4.11,-0.17,4.19
2022-08-11 17:49:55.2200,-0.34,-3.04,-0.1,3.06
2022-08-11 17:49:55.2300,-0.38,-1.83,0.61,1.96
2022-08-11 17:49:55.2400,-0.46,-0.57,1.31,1.5
2022-08-11 17:49:55.2560,-0.62,0.81,1.52,1.83
2022-08-11 17:49:55.2590,-1.0,1.86,1.92,2.85
2022-08-11 17:49:55.2700,-1.13,2.11,2.16,3.22
2022-08-11 17:49:55.2810,-0.6,1.26,1.66,2.16
2022-08-11 17:49:55.2890,0.29,-0.29,0.73,0.83
2022-08-11 17:49:55.3010,0.72,-1.05,-0.72,1.46
2022-08-11 17:49:55.3090,0.34,-0.8,-2.21,2.37
2022-08-11 17:49:55.3190,-0.08,-0.29,-2.42,2.43
2022-08-11 17:49:55.3290,-0.51,-0.23,-1.48,1.58
2022-08-11 17:49:55.3390,-1.23,-0.48,-0.35,1.36
2022-08-11 17:49:55.3550,-1.75,-0.73,0.61,1.99
2022-08-11 17:49:55.3590,-1.64,-1.02,1.37,2.36
2022-08-11 17:49:55.3700,-1.09,-1.08,1.56,2.18
2022-08-11 17:49:55.3800,-0.15,-0.81,0.95,1.25
2022-08-11 17:49:55.3900,0.91,-0.46,0.16,1.03
2022-08-11 17:49:55.3990,2.0,-0.09,-0.31,2.02
2022-08-11 17:49:55.4090,3.04,0.17,-0.36,3.06
2022-08-11 17:49:55.4190,3.85,0.18,-0.28,3.86
2022-08-11 17:49:55.4280,4.31,-0.07,-0.16,4.31
2022-08-11 17:49:55.4380,4.28,-0.46,-0.1,4.3
2022-08-11 17:49:55.4570,3.75,-0.86,-0.03,3.84
2022-08-11 17:49:55.4600,3.11,-1.12,0.11,3.3
2022-08-11 17:49:55.4690,2.66,-1.26,0.27,2.95
2022-08-11 17:49:55.4790,2.42,-1.3,0.41,2.77
2022-08-11 17:49:55.4890,2.31,-1.22,0.33,2.63
2022-08-11 17:49:55.4990,2.3,-0.94,0.01,2.48
2022-08-11 17:49:55.5090,2.27,-0.46,-0.43,2.35
2022-08-11 17:49:55.5180,2.09,0.05,-0.85,2.25
2022-08-11 17:49:55.5280,1.72,0.51,-0.72,1.93
2022-08-11 17:49:55.5380,1.44,0.91,-0.07,1.7
2022-08-11 17:49:55.5560,1.59,1.02,1.08,2.17
2022-08-11 17:49:55.5590,2.6,0.62,2.36,3.56
2022-08-11 17:49:55.5670,4.02,0.02,3.26,5.17
2022-08-11 17:49:55.5780,5.43,-0.27,3.44,6.43
2022-08-11 17:49:55.5870,6.56,0.11,2.81,7.13
2022-08-11 17:49:55.5990,6.88,1.22,1.55,7.15
2022-08-11 17:49:55.6070,6.35,2.7,0.5,6.91
2022-08-11 17:49:55.6170,5.2,3.87,0.2,6.48
2022-08-11 17:49:55.6270,3.9,4.44,0.38,5.92
2022-08-11 17:49:55.6380,2.91,4.49,0.78,5.4
2022-08-11 17:49:55.6600,2.25,4.17,0.98,4.83
2022-08-11 17:49:55.6620,1.29,3.32,0.92,3.67
2022-08-11 17:49:55.6660,-0.11,1.57,0.82,1.77
2022-08-11 17:49:55.6770,-1.31,-0.12,0.68,1.48
2022-08-11 17:49:55.6860,-2.62,-0.65,0.09,2.7
2022-08-11 17:49:55.6970,-3.87,-0.03,-1.2,4.05
2022-08-11 17:49:55.7060,-4.55,1.71,-3.04,5.73
2022-08-11 17:49:55.7160,-4.73,4.59,-4.18,7.8
2022-08-11 17:49:55.7260,-4.71,7.47,-3.73,9.58
2022-08-11 17:49:55.7360,-4.42,8.3,-2.44,9.71
2022-08-11 17:49:55.7590,-2.72,6.54,-1.8,7.3
2022-08-11 17:49:55.7610,-0.41,4.12,-1.8,4.51
2022-08-11 17:49:55.7660,1.21,1.91,-2.02,3.03
2022-08-11 17:49:55.7770,1.9,0.6,-2.31,3.05
2022-08-11 17:49:55.7870,2.18,0.08,-2.17,3.07
2022-08-11 17:49:55.7950,2.38,-0.14,-1.96,3.08
2022-08-11 17:49:55.8070,2.61,-0.37,-1.87,3.23
2022-08-11 17:49:55.8170,2.67,-0.56,-1.62,3.17
2022-08-11 17:49:55.8260,2.51,-0.82,-1.02,2.83
2022-08-11 17:49:55.8360,2.16,-1.22,-0.3,2.49
2022-08-11 17:49:55.8450,1.64,-1.78,0.33,2.44
2022-08-11 17:49:55.8610,0.82,-2.31,1.2,2.72
2022-08-11 17:49:55.8660,-1.61,-3.36,9.98,10.65
2022-08-11 17:49:55.8760,-3.76,-8.79,16.31,18.9
2022-08-11 17:49:55.8850,-0.14,-7.61,-6.88,10.25
2022-08-11 17:49:55.8970,-0.06,-5.18,-8.31,9.79
2022-08-11 17:49:55.9050,-2.54,-0.81,-6.54,7.06
2022-08-11 17:49:55.9150,-3.52,0.99,-4.45,5.75
2022-08-11 17:49:55.9250,-3.24,0.55,-1.94,3.81
2022-08-11 17:49:55.9350,-3.13,-0.89,-0.7,3.32
2022-08-11 17:49:55.9450,-3.12,-1.88,0.44,3.66
2022-08-11 17:49:55.9600,-3.06,-2.13,1.64,4.07
2022-08-11 17:49:55.9640,-2.99,-1.89,2.42,4.28
2022-08-11 17:49:55.9750,-2.88,-2.01,2.37,4.23
2022-08-11 17:49:55.9860,-2.66,-2.76,1.99,4.31
2022-08-11 17:49:55.9940,-2.29,-3.7,1.43,4.58
2022-08-11 17:49:56.0040,-2.08,-4.09,0.46,4.61
2022-08-11 17:49:56.0160,-1.96,-3.38,-0.3,3.91
2022-08-11 17:49:56.0240,-1.62,-2.33,-0.8,2.94
2022-08-11 17:49:56.0340,-0.89,-1.56,-1.4,2.27
2022-08-11 17:49:56.0460,0.28,-0.86,-1.58,1.82
2022-08-11 17:49:56.0590,1.45,-0.1,-1.47,2.06
2022-08-11 17:49:56.0640,2.45,0.57,-1.52,2.93
2022-08-11 17:49:56.0740,3.44,1.16,-1.82,4.06
2022-08-11 17:49:56.0850,4.58,1.82,-2.05,5.33
2022-08-11 17:49:56.0930,5.92,2.82,-1.4,6.7
2022-08-11 17:49:56.1030,7.32,3.82,-0.13,8.25
2022-08-11 17:49:56.1150,8.22,4.2,0.16,9.23
2022-08-11 17:49:56.1230,8.15,3.52,-0.63,8.89
2022-08-11 17:49:56.1330,6.84,2.1,-1.43,7.29
2022-08-11 17:49:56.1450,5.22,0.54,-1.72,5.52
2022-08-11 17:49:56.1580,4.31,-0.3,-2.05,4.78
2022-08-11 17:49:56.1630,4.17,0.46,-3.18,5.26
2022-08-11 17:49:56.1740,4.38,4.37,-2.98,6.86
2022-08-11 17:49:56.1840,3.88,10.18,-0.45,10.9
2022-08-11 17:49:56.1930,0.81,12.96,1.14,13.03
2022-08-11 17:49:56.2030,-5.64,13.34,1.91,14.6
2022-08-11 17:49:56.2140,-11.99,8.78,2.91,15.14
2022-08-11 17:49:56.2230,-13.84,0.43,3.49,14.27
2022-08-11 17:49:56.2330,-11.88,-5.47,4.43,13.8
2022-08-11 17:49:56.2420,-9.76,-7.79,4.85,13.39
2022-08-11 17:49:56.2610,-7.89,-8.07,3.56,11.83
2022-08-11 17:49:56.2640,-6.27,-7.34,1.12,9.71
2022-08-11 17:49:56.2730,-5.02,-5.61,-0.94,7.58
2022-08-11 17:49:56.2820,-4.68,-3.55,-1.68,6.1
2022-08-11 17:49:56.2930,-4.77,-1.81,-1.0,5.19
2022-08-11 17:49:56.3020,-4.36,0.04,0.36,4.37
2022-08-11 17:49:56.3120,-3.63,1.81,1.21,4.23
2022-08-11 17:49:56.3220,-2.95,3.23,1.79,4.72
2022-08-11 17:49:56.3320,-1.63,3.8,3.0,5.1
2022-08-11 17:49:56.3420,0.69,3.08,3.36,4.6
2022-08-11 17:49:56.3600,3.43,1.26,2.01,4.17
2022-08-11 17:49:56.3630,5.21,-0.76,-0.45,5.28
2022-08-11 17:49:56.3720,4.61,-1.66,-2.7,5.59
2022-08-11 17:49:56.3820,2.69,-1.42,-3.22,4.42
2022-08-11 17:49:56.3930,1.11,-1.11,-2.26,2.75
2022-08-11 17:49:56.4030,-0.55,-0.91,-1.48,1.82
2022-08-11 17:49:56.4110,-2.17,-0.68,-0.84,2.42
2022-08-11 17:49:56.4210,-3.3,-0.73,-0.19,3.38
2022-08-11 17:49:56.4310,-3.75,-0.96,0.65,3.92
2022-08-11 17:49:56.4410,-3.43,-1.09,1.35,3.84
2022-08-11 17:49:56.4640,-2.13,-0.99,1.22,2.64
2022-08-11 17:49:56.4670,-0.19,-0.74,0.27,0.81
2022-08-11 17:49:56.4710,1.97,-0.49,-0.81,2.18
2022-08-11 17:49:56.4810,3.73,-0.22,-1.47,4.01
2022-08-11 17:49:56.4920,4.77,-0.01,-1.45,4.98
2022-08-11 17:49:56.5020,5.17,0.11,-0.75,5.22
2022-08-11 17:49:56.5100,5.0,-0.12,-0.03,5.0
2022-08-11 17:49:56.5220,4.08,-0.89,0.02,4.17
2022-08-11 17:49:56.5300,3.08,-1.72,-0.2,3.53
2022-08-11 17:49:56.5410,2.74,-2.03,-0.31,3.42
2022-08-11 17:49:56.5630,2.64,-1.82,-0.35,3.22
2022-08-11 17:49:56.5650,2.57,-1.12,-0.41,2.83
2022-08-11 17:49:56.5690,2.48,-0.05,-0.41,2.51
2022-08-11 17:49:56.5810,2.45,0.89,-0.16,2.61
2022-08-11 17:49:56.5910,2.78,1.39,0.51,3.14
2022-08-11 17:49:56.6000,3.81,1.56,1.47,4.37
2022-08-11 17:49:56.6110,5.08,1.42,2.38,5.78
2022-08-11 17:49:56.6200,6.31,1.25,2.83,7.02
2022-08-11 17:49:56.6300,7.28,1.47,2.36,7.79
2022-08-11 17:49:56.6400,7.26,2.23,1.37,7.71
2022-08-11 17:49:56.6500,6.2,3.24,0.47,7.01
2022-08-11 17:49:56.6660,4.93,4.18,0.08,6.46
2022-08-11 17:49:56.6690,4.01,4.49,0.27,6.02
2022-08-11 17:49:56.6810,3.39,3.89,0.9,5.23
2022-08-11 17:49:56.6900,3.15,2.44,1.46,4.24
2022-08-11 17:49:56.6990,2.87,0.51,1.47,3.26
2022-08-11 17:49:56.7090,2.33,-1.39,1.18,2.95
2022-08-11 17:49:56.7190,1.55,-2.64,0.9,3.19
2022-08-11 17:49:56.7290,0.35,-3.1,0.43,3.14
2022-08-11 17:49:56.7390,-1.3,-2.81,-0.27,3.1
2022-08-11 17:49:56.7490,-3.26,-1.38,-1.23,3.74
2022-08-11 17:49:56.7650,-5.29,1.38,-2.61,6.05
2022-08-11 17:49:56.7680,-6.43,5.58,-3.75,9.3
2022-08-11 17:49:56.7800,-6.44,9.75,-3.32,12.14
2022-08-11 17:49:56.7890,-6.31,10.66,-2.46,12.62
2022-08-11 17:49:56.7990,-5.46,10.53,-2.98,12.23
2022-08-11 17:49:56.8100,-4.17,9.74,-3.54,11.17
2022-08-11 17:49:56.8180,-2.75,6.52,-3.79,8.02
2022-08-11 17:49:56.8280,-0.61,2.58,-3.61,4.47
2022-08-11 17:49:56.8400,1.17,-0.01,-2.97,3.19
2022-08-11 17:49:56.8480,2.64,-1.19,-1.86,3.44
2022-08-11 17:49:56.8640,3.87,-1.33,-1.36,4.31
2022-08-11 17:49:56.8680,4.8,-1.06,-1.59,5.16
2022-08-11 17:49:56.8790,5.51,-0.96,-1.71,5.84
2022-08-11 17:49:56.8880,5.74,-1.23,-1.32,6.01
2022-08-11 17:49:56.8990,5.08,-1.69,-0.66,5.39
2022-08-11 17:49:56.9080,3.57,-2.06,-0.01,4.12
2022-08-11 17:49:56.9180,1.69,-2.19,0.55,2.82
2022-08-11 17:49:56.9290,-0.12,-2.06,0.94,2.26
2022-08-11 17:49:56.9370,-1.68,-1.94,1.26,2.85
2022-08-11 17:49:56.9480,-2.99,-1.99,1.49,3.88
2022-08-11 17:49:56.9630,-3.97,-2.26,1.43,4.78
2022-08-11 17:49:56.9670,-4.61,-2.78,1.07,5.48
2022-08-11 17:49:56.9780,-5.05,-3.53,0.63,6.19
2022-08-11 17:49:56.9890,-5.22,-4.49,0.38,6.89
2022-08-11 17:49:56.9990,-5.14,-5.53,0.38,7.55
2022-08-11 17:49:57.0070,-5.0,-6.17,0.57,7.96
2022-08-11 17:49:57.0180,-4.9,-6.01,0.46,7.76
2022-08-11 17:49:57.0270,-4.63,-5.36,0.04,7.08
2022-08-11 17:49:57.0370,-3.97,-4.4,-0.52,5.94
2022-08-11 17:49:57.0470,-3.02,-3.23,-1.21,4.58
2022-08-11 17:49:57.0640,-1.99,-1.98,-2.12,3.51
2022-08-11 17:49:57.0680,-0.81,-0.73,-2.68,2.89
2022-08-11 17:49:57.0770,0.52,0.69,-2.26,2.41
2022-08-11 17:49:57.0870,2.06,1.79,-1.16,2.96
2022-08-11 17:49:57.0960,3.57,2.25,-0.54,4.25
2022-08-11 17:49:57.1070,4.87,2.3,-1.06,5.48
2022-08-11 17:49:57.1160,6.12,2.18,-1.29,6.62
2022-08-11 17:49:57.1270,7.5,1.85,-0.53,7.74
2022-08-11 17:49:57.1360,9.14,1.85,0.02,9.32
2022-08-11 17:49:57.1460,10.41,2.51,0.04,10.7
2022-08-11 17:49:57.1650,10.68,3.09,-0.44,11.12
2022-08-11 17:49:57.1680,9.55,1.9,-1.2,9.81
2022-08-11 17:49:57.1760,6.9,0.59,-2.36,7.31
2022-08-11 17:49:57.1860,3.97,1.21,-4.52,6.13
2022-08-11 17:49:57.1970,2.59,4.02,-6.49,8.06
2022-08-11 17:49:57.2050,2.75,7.0,-2.98,8.08
2022-08-11 17:49:57.2160,0.65,8.41,2.68,8.85
2022-08-11 17:49:57.2250,-6.01,12.13,5.74,14.7
2022-08-11 17:49:57.2350,-14.45,14.31,8.27,21.95
2022-08-11 17:49:57.2450,-17.0,6.01,8.23,19.82
2022-08-11 17:49:57.2690,-12.1,-3.83,4.26,13.38
2022-08-11 17:49:57.2710,-8.83,-7.84,1.74,11.93
2022-08-11 17:49:57.2750,-7.16,-8.92,0.77,11.46
2022-08-11 17:49:57.2850,-6.42,-8.47,0.38,10.63
2022-08-11 17:49:57.2960,-5.64,-5.56,0.69,7.94
2022-08-11 17:49:57.3050,-3.82,-1.92,1.02,4.39
2022-08-11 17:49:57.3160,-2.75,-0.16,1.54,3.15
2022-08-11 17:49:57.3250,-2.64,0.48,1.98,3.33
2022-08-11 17:49:57.3350,-2.93,0.63,1.51,3.35
2022-08-11 17:49:57.3440,-3.32,0.4,0.59,3.39
2022-08-11 17:49:57.3670,-3.55,0.25,0.54,3.59
2022-08-11 17:49:57.3690,-3.12,0.32,1.36,3.41
2022-08-11 17:49:57.3750,-1.85,0.48,2.01,2.77
2022-08-11 17:49:57.3840,-0.16,0.67,1.67,1.8
2022-08-11 17:49:57.3940,1.23,0.69,0.21,1.42
2022-08-11 17:49:57.4040,1.65,0.56,-1.57,2.34
2022-08-11 17:49:57.4150,1.43,0.37,-2.25,2.69
2022-08-11 17:49:57.4250,1.12,0.1,-1.49,1.86
2022-08-11 17:49:57.4340,0.49,-0.17,-0.25,0.57
2022-08-11 17:49:57.4450,-0.04,-0.56,0.65,0.85
2022-08-11 17:49:57.4550,-0.04,-1.05,1.0,1.45
2022-08-11 17:49:57.4690,0.51,-1.41,0.97,1.78
2022-08-11 17:49:57.4740,1.32,-1.45,0.52,2.02
2022-08-11 17:49:57.4830,2.13,-1.19,-0.15,2.44
2022-08-11 17:49:57.4950,2.8,-0.8,-0.59,2.97
2022-08-11 17:49:57.5030,3.45,-0.5,-0.55,3.52
2022-08-11 17:49:57.5140,3.94,-0.35,-0.29,3.96
2022-08-11 17:49:57.5230,4.27,-0.33,-0.06,4.28
2022-08-11 17:49:57.5340,4.25,-0.42,0.02,4.27
2022-08-11 17:49:57.5440,3.97,-0.69,0.02,4.02
2022-08-11 17:49:57.5530,3.68,-1.1,0.09,3.84
2022-08-11 17:49:57.5690,3.45,-1.46,0.16,3.74
2022-08-11 17:49:57.5730,3.24,-1.67,0.24,3.65
2022-08-11 17:49:57.5830,3.06,-1.57,0.1,3.44
2022-08-11 17:49:57.5940,2.75,-0.98,-0.16,2.92
2022-08-11 17:49:57.6040,2.32,-0.07,-0.26,2.33
2022-08-11 17:49:57.6130,2.0,0.83,-0.01,2.16
2022-08-11 17:49:57.6220,2.24,1.5,0.62,2.76
2022-08-11 17:49:57.6330,3.21,1.74,1.54,3.96
2022-08-11 17:49:57.6420,4.49,1.66,2.32,5.31
2022-08-11 17:49:57.6520,5.52,1.44,2.73,6.32
2022-08-11 17:49:57.6690,6.32,1.59,2.64,7.03
2022-08-11 17:49:57.6720,6.2,2.18,2.1,6.89
2022-08-11 17:49:57.6820,4.75,2.72,1.52,5.68
2022-08-11 17:49:57.6930,3.25,2.74,1.18,4.41
2022-08-11 17:49:57.7020,2.73,2.46,1.3,3.89
2022-08-11 17:49:57.7120,2.69,2.08,1.56,3.74
2022-08-11 17:49:57.7230,3.03,1.36,1.5,3.64
2022-08-11 17:49:57.7320,3.07,0.19,1.26,3.32
2022-08-11 17:49:57.7420,2.52,-1.28,0.71,2.91
2022-08-11 17:49:57.7520,1.27,-2.48,0.0,2.78
2022-08-11 17:49:57.7670,-0.2,-2.89,-0.48,2.93
2022-08-11 17:49:57.7710,-2.06,-1.92,-0.86,2.94
2022-08-11 17:49:57.7820,-4.03,0.83,-1.9,4.53
2022-08-11 17:49:57.7930,-5.1,4.89,-2.79,7.59
2022-08-11 17:49:57.8030,-5.4,8.7,-2.0,10.43
2022-08-11 17:49:57.8130,-5.44,9.86,-1.27,11.33
2022-08-11 17:49:57.8220,-4.96,10.77,-2.11,12.04
2022-08-11 17:49:57.8310,-4.16,11.34,-3.02,12.45
2022-08-11 17:49:57.8410,-3.01,9.11,-3.97,10.38
2022-08-11 17:49:57.8520,-0.97,4.92,-4.36,6.64
2022-08-11 17:49:57.8670,0.57,1.61,-3.68,4.05
2022-08-11 17:49:57.8710,1.52,-0.28,-2.38,2.83
2022-08-11 17:49:57.8810,2.31,-1.14,-1.54,3.0
2022-08-11 17:49:57.8920,2.93,-1.47,-1.22,3.49
2022-08-11 17:49:57.9000,3.46,-1.85,-0.76,3.99
2022-08-11 17:49:57.9120,3.76,-2.33,-0.32,4.43
2022-08-11 17:49:57.9200,3.7,-2.89,0.0,4.69
2022-08-11 17:49:57.9300,3.28,-3.48,0.34,4.79
2022-08-11 17:49:57.9420,2.5,-3.91,0.69,4.69
2022-08-11 17:49:57.9520,1.25,-3.97,0.94,4.26
2022-08-11 17:49:57.9700,-0.41,-3.73,1.16,3.92
2022-08-11 17:49:57.9730,-1.94,-3.32,1.45,4.1
2022-08-11 17:49:57.9800,-3.14,-3.0,1.55,4.61
2022-08-11 17:49:57.9900,-4.06,-2.99,1.42,5.23
2022-08-11 17:49:58.0010,-4.58,-3.21,1.25,5.73
2022-08-11 17:49:58.0110,-4.82,-3.77,0.96,6.19
2022-08-11 17:49:58.0210,-4.9,-4.42,0.7,6.63
2022-08-11 17:49:58.0300,-4.83,-4.94,0.53,6.92
2022-08-11 17:49:58.0400,-4.65,-4.85,0.43,6.73
2022-08-11 17:49:58.0500,-4.29,-4.32,0.38,6.1
2022-08-11 17:49:58.0730,-3.9,-3.5,0.25,5.24
2022-08-11 17:49:58.0750,-3.25,-2.79,-0.31,4.29
2022-08-11 17:49:58.0790,-2.23,-2.25,-1.08,3.34
2022-08-11 17:49:58.0900,-1.13,-1.71,-1.6,2.6
2022-08-11 17:49:58.1000,-0.16,-0.88,-1.83,2.03
2022-08-11 17:49:58.1110,0.83,0.25,-1.59,1.81
2022-08-11 17:49:58.1190,1.89,1.23,-1.13,2.52
2022-08-11 17:49:58.1290,2.96,1.8,-0.88,3.57
2022-08-11 17:49:58.1390,3.89,2.14,-1.51,4.68
2022-08-11 17:49:58.1490,4.82,2.48,-2.31,5.89
2022-08-11 17:49:58.1720,5.86,2.61,-1.94,6.7
2022-08-11 17:49:58.1740,7.02,2.39,-0.57,7.43
2022-08-11 17:49:58.1790,8.29,2.65,0.69,8.73
2022-08-11 17:49:58.1890,9.27,3.59,0.88,9.97
2022-08-11 17:49:58.2000,9.35,3.34,-0.34,9.93
2022-08-11 17:49:58.2080,7.74,1.49,-1.89,8.1
2022-08-11 17:49:58.2180,4.47,0.78,-2.77,5.31
2022-08-11 17:49:58.2300,1.84,1.61,-3.62,4.36
2022-08-11 17:49:58.2380,1.12,4.08,-4.24,5.98
2022-08-11 17:49:58.2480,1.87,7.1,-1.45,7.48
2022-08-11 17:49:58.2580,1.02,8.25,1.59,8.46
2022-08-11 17:49:58.2750,-2.54,9.09,2.97,9.89
2022-08-11 17:49:58.2770,-7.91,9.36,3.82,12.83
2022-08-11 17:49:58.2880,-12.47,4.98,4.46,14.14
2022-08-11 17:49:58.2990,-12.55,-1.14,4.02,13.22
2022-08-11 17:49:58.3090,-10.05,-5.14,3.64,11.86
2022-08-11 17:49:58.3190,-7.89,-6.79,3.33,10.92
2022-08-11 17:49:58.3270,-6.24,-7.13,2.81,9.88
2022-08-11 17:49:58.3370,-4.43,-5.37,2.06,7.25
2022-08-11 17:49:58.3490,-3.05,-2.45,1.58,4.21
2022-08-11 17:49:58.3570,-3.33,-1.41,0.9,3.72
2022-08-11 17:49:58.3730,-4.24,-1.61,0.04,4.53
2022-08-11 17:49:58.3770,-4.84,-1.77,-0.4,5.16
2022-08-11 17:49:58.3880,-5.17,-1.36,-0.55,5.37
2022-08-11 17:49:58.3980,-5.18,-0.4,0.42,5.21
2022-08-11 17:49:58.4070,-4.42,0.54,2.9,5.31
2022-08-11 17:49:58.4170,-2.69,1.19,4.47,5.35
2022-08-11 17:49:58.4260,-0.42,1.47,3.53,3.84
2022-08-11 17:49:58.4380,1.78,1.18,0.85,2.29
2022-08-11 17:49:58.4470,2.76,0.51,-2.15,3.53
2022-08-11 17:49:58.4560,2.26,0.2,-3.65,4.29
2022-08-11 17:49:58.4720,1.23,-0.06,-2.78,3.04
2022-08-11 17:49:58.4760,0.06,-0.43,-1.0,1.09
2022-08-11 17:49:58.4860,-0.8,-0.78,0.25,1.14
2022-08-11 17:49:58.4970,-1.18,-1.05,0.92,1.82
2022-08-11 17:49:58.5080,-0.97,-1.09,1.33,1.97
2022-08-11 17:49:58.5160,-0.14,-0.99,1.45,1.76
2022-08-11 17:49:58.5280,0.92,-0.77,0.98,1.54
2022-08-11 17:49:58.5360,2.06,-0.52,0.1,2.12
2022-08-11 17:49:58.5460,3.24,-0.34,-0.6,3.31
2022-08-11 17:49:58.5570,4.38,-0.27,-0.67,4.43
